thisN,thisTrialN,thisRepN,trials.thisRepN,trials.thisTrialN,trials.thisN,trials.thisIndex,thisRow.t,notes,calibration.started,mouse_2.started,polygon_2.started,calibration.stopped,mouse_2.x,mouse_2.y,mouse_2.leftButton,mouse_2.midButton,mouse_2.rightButton,mouse_2.time,mouse_2.corr,trial.started,mouse.started,polygon.started,time_in_run,x_coord_mouse,y_coord_mouse,x_coord_target,y_coord_target,opacity,trial.stopped,participant,session,date,expName,psychopyVersion,frameRate,expStart
,,,,,,,,,0.0121498,0.0119267,0.0224649,1.7152969,[0.056666666666666664],[0.058333333333333334],[1],[0],[0],[1.7025224999524653],[],,,,,,,,,,,782340,1,2025-06-22_16h54.39.070,ContPsyTracking,2024.2.4,104.7514196,2025-06-22 16h54.43.745144 -0400
0,0,0,0,0,0,0,1.7258511,,,,,,,,,,,,,1.7168462,0.0014551,1.7258511,3.003216505,-0.003333333,-0.003333333,0.182383657,-0.7958318,1,,782340,1,2025-06-22_16h54.39.070,ContPsyTracking,2024.2.4,104.7514196,2025-06-22 16h54.43.745144 -0400
0,0,0,0,0,0,0,,,,,,,,,,,,,,,,,3.013183117,-0.003333333,-0.003333333,-0.03454976,-1.422576736,1,,782340,1,2025-06-22_16h54.39.070,ContPsyTracking,2024.2.4,104.7514196,2025-06-22 16h54.43.745144 -0400
0,0,0,0,0,0,0,,,,,,,,,,,,,,,,,3.023150921,-0.003333333,-0.003333333,0.125053273,-1.130707117,1,,782340,1,2025-06-22_16h54.39.070,ContPsyTracking,2024.2.4,104.7514196,2025-06-22 16h54.43.745144 -0400
0,0,0,0,0,0,0,,,,,,,,,,,,,,,,,3.032124281,-0.003333333,-0.003333333,0.352834123,-1.123192382,1,,782340,1,2025-06-22_16h54.39.070,ContPsyTracking,2024.2.4,104.7514196,2025-06-22 16h54.43.745144 -0400
0,0,0,0,0,0,0,,,,,,,,,,,,,,,,,3.041089773,-0.003333333,-0.003333333,0.453368803,-0.713335874,1,,782340,1,2025-06-22_16h54.39.070,ContPsyTracking,2024.2.4,104.7514196,2025-06-22 16h54.43.745144 -0400
0,0,0,0,0,0,0,,,,,,,,,,,,,,,,,3.050694227,-0.003333333,-0.003333333,0.49365037,-0.61673364,1,,782340,1,2025-06-22_16h54.39.070,ContPsyTracking,2024.2.4,104.7514196,2025-06-22 16h54.43.745144 -0400
0,0,0,0,0,0,0,,,,,,,,,,,,,,,,,3.058661699,-0.003333333,-0.003333333,-0.08576334,-0.96045251,1,,782340,1,2025-06-22_16h54.39.070,ContPsyTracking,2024.2.4,104.7514196,2025-06-22 16h54.43.745144 -0400
0,0,0,0,0,0,0,,,,,,,,,,,,,,,,,3.068632126,-0.003333333,-0.003333333,-0.327384403,-0.474829224,1,,782340,1,2025-06-22_16h54.39.070,ContPsyTracking,2024.2.4,104.7514196,2025-06-22 16h54.43.745144 -0400
0,0,0,0,0,0,0,,,,,,,,,,,,,,,,,3.07759738,-0.003333333,-0.003333333,-0.421365974,-0.770808391,1,,782340,1,2025-06-22_16h54.39.070,ContPsyTracking,2024.2.4,104.7514196,2025-06-22 16h54.43.745144 -0400
0,0,0,0,0,0,0,,,,,,,,,,,,,,,,,3.088565826,-0.003333333,-0.003333333,-0.410184143,-0.406374185,1,,782340,1,2025-06-22_16h54.39.070,ContPsyTracking,2024.2.4,104.7514196,2025-06-22 16h54.43.745144 -0400
0,0,0,0,0,0,0,,,,,,,,,,,,,,,,,3.0985322,-0.003333333,-0.003333333,-0.306867717,-0.986209549,1,,782340,1,2025-06-22_16h54.39.070,ContPsyTracking,2024.2.4,104.7514196,2025-06-22 16h54.43.745144 -0400
0,0,0,0,0,0,0,,,,,,,,,,,,,,,,,3.108501434,-0.003333333,-0.003333333,-0.095106084,-0.825271544,1,,782340,1,2025-06-22_16h54.39.070,ContPsyTracking,2024.2.4,104.7514196,2025-06-22 16h54.43.745144 -0400
0,0,0,0,0,0,0,,,,,,,,,,,,,,,,,3.116472006,-0.003333333,-0.003333333,-0.249782614,-1.06041083,1,,782340,1,2025-06-22_16h54.39.070,ContPsyTracking,2024.2.4,104.7514196,2025-06-22 16h54.43.745144 -0400
0,0,0,0,0,0,0,,,,,,,,,,,,,,,,,3.125437975,-0.003333333,-0.003333333,-0.397710173,-1.176747955,1,,782340,1,2025-06-22_16h54.39.070,ContPsyTracking,2024.2.4,104.7514196,2025-06-22 16h54.43.745144 -0400
0,0,0,0,0,0,0,,,,,,,,,,,,,,,,,3.135406494,-0.003333333,-0.003333333,-0.112469419,-1.272978477,1,,782340,1,2025-06-22_16h54.39.070,ContPsyTracking,2024.2.4,104.7514196,2025-06-22 16h54.43.745144 -0400
0,0,0,0,0,0,0,,,,,,,,,,,,,,,,,3.144375563,-0.003333333,-0.003333333,-0.200308461,-1.365197696,1,,782340,1,2025-06-22_16h54.39.070,ContPsyTracking,2024.2.4,104.7514196,2025-06-22 16h54.43.745144 -0400
0,0,0,0,0,0,0,,,,,,,,,,,,,,,,,3.154340982,-0.003333333,-0.003333333,-0.238760652,-1.918414071,1,,782340,1,2025-06-22_16h54.39.070,ContPsyTracking,2024.2.4,104.7514196,2025-06-22 16h54.43.745144 -0400
0,0,0,0,0,0,0,,,,,,,,,,,,,,,,,3.165305138,-0.003333333,-0.003333333,-0.115896375,-2.374830979,1,,782340,1,2025-06-22_16h54.39.070,ContPsyTracking,2024.2.4,104.7514196,2025-06-22 16h54.43.745144 -0400
0,0,0,0,0,0,0,,,,,,,,,,,,,,,,,3.175275326,-0.003333333,-0.003333333,0.013596452,-2.306752702,1,,782340,1,2025-06-22_16h54.39.070,ContPsyTracking,2024.2.4,104.7514196,2025-06-22 16h54.43.745144 -0400
0,0,0,0,0,0,0,,,,,,,,,,,,,,,,,3.183248758,-0.003333333,-0.003333333,-0.112266133,-2.190677565,1,,782340,1,2025-06-22_16h54.39.070,ContPsyTracking,2024.2.4,104.7514196,2025-06-22 16h54.43.745144 -0400
0,0,0,0,0,0,0,,,,,,,,,,,,,,,,,3.192219257,-0.003333333,-0.003333333,-0.295917446,-2.519770951,1,,782340,1,2025-06-22_16h54.39.070,ContPsyTracking,2024.2.4,104.7514196,2025-06-22 16h54.43.745144 -0400
0,0,0,0,0,0,0,,,,,,,,,,,,,,,,,3.203183413,-0.003333333,-0.003333333,0.373032743,-2.584096371,1,,782340,1,2025-06-22_16h54.39.070,ContPsyTracking,2024.2.4,104.7514196,2025-06-22 16h54.43.745144 -0400
0,0,0,0,0,0,0,,,,,,,,,,,,,,,,,3.213148355,-0.003333333,-0.003333333,-0.047625491,-2.958931107,1,,782340,1,2025-06-22_16h54.39.070,ContPsyTracking,2024.2.4,104.7514196,2025-06-22 16h54.43.745144 -0400
0,0,0,0,0,0,0,,,,,,,,,,,,,,,,,3.222114563,-0.003333333,-0.003333333,-0.334774681,-3.099178656,1,,782340,1,2025-06-22_16h54.39.070,ContPsyTracking,2024.2.4,104.7514196,2025-06-22 16h54.43.745144 -0400
0,0,0,0,0,0,0,,,,,,,,,,,,,,,,,3.233082056,-0.003333333,-0.003333333,-0.084583453,-3.030714651,1,,782340,1,2025-06-22_16h54.39.070,ContPsyTracking,2024.2.4,104.7514196,2025-06-22 16h54.43.745144 -0400
0,0,0,0,0,0,0,,,,,,,,,,,,,,,,,3.241052389,-0.003333333,-0.003333333,-0.297527438,-2.869981153,1,,782340,1,2025-06-22_16h54.39.070,ContPsyTracking,2024.2.4,104.7514196,2025-06-22 16h54.43.745144 -0400
0,0,0,0,0,0,0,,,,,,,,,,,,,,,,,3.250025272,-0.003333333,-0.003333333,-0.629143881,-2.524475541,1,,782340,1,2025-06-22_16h54.39.070,ContPsyTracking,2024.2.4,104.7514196,2025-06-22 16h54.43.745144 -0400
0,0,0,0,0,0,0,,,,,,,,,,,,,,,,,3.260001659,-0.003333333,-0.003333333,-0.438596636,-2.344986865,1,,782340,1,2025-06-22_16h54.39.070,ContPsyTracking,2024.2.4,104.7514196,2025-06-22 16h54.43.745144 -0400
0,0,0,0,0,0,0,,,,,,,,,,,,,,,,,3.268958807,-0.003333333,-0.003333333,-1.01771779,-2.180614934,1,,782340,1,2025-06-22_16h54.39.070,ContPsyTracking,2024.2.4,104.7514196,2025-06-22 16h54.43.745144 -0400
0,0,0,0,0,0,0,,,,,,,,,,,,,,,,,3.276932955,-0.003333333,-0.003333333,-0.671543038,-2.223438064,1,,782340,1,2025-06-22_16h54.39.070,ContPsyTracking,2024.2.4,104.7514196,2025-06-22 16h54.43.745144 -0400
0,0,0,0,0,0,0,,,,,,,,,,,,,,,,,3.287894964,-0.003333333,-0.003333333,-0.162748066,-2.689534099,1,,782340,1,2025-06-22_16h54.39.070,ContPsyTracking,2024.2.4,104.7514196,2025-06-22 16h54.43.745144 -0400
0,0,0,0,0,0,0,,,,,,,,,,,,,,,,,3.298862219,-0.003333333,-0.003333333,-0.128286713,-3.201254951,1,,782340,1,2025-06-22_16h54.39.070,ContPsyTracking,2024.2.4,104.7514196,2025-06-22 16h54.43.745144 -0400
0,0,0,0,0,0,0,,,,,,,,,,,,,,,,,3.307831049,-0.003333333,-0.003333333,-0.364071982,-3.348146753,1,,782340,1,2025-06-22_16h54.39.070,ContPsyTracking,2024.2.4,104.7514196,2025-06-22 16h54.43.745144 -0400
0,0,0,0,0,0,0,,,,,,,,,,,,,,,,,3.316798449,-0.003333333,-0.003333333,-0.530509539,-3.684871861,1,,782340,1,2025-06-22_16h54.39.070,ContPsyTracking,2024.2.4,104.7514196,2025-06-22 16h54.43.745144 -0400
0,0,0,0,0,0,0,,,,,,,,,,,,,,,,,3.326770544,-0.003333333,-0.003333333,-0.662335286,-2.988741555,1,,782340,1,2025-06-22_16h54.39.070,ContPsyTracking,2024.2.4,104.7514196,2025-06-22 16h54.43.745144 -0400
0,0,0,0,0,0,0,,,,,,,,,,,,,,,,,3.334762096,-0.003333333,-0.003333333,-0.505532208,-2.589373634,1,,782340,1,2025-06-22_16h54.39.070,ContPsyTracking,2024.2.4,104.7514196,2025-06-22 16h54.43.745144 -0400
0,0,0,0,0,0,0,,,,,,,,,,,,,,,,,3.343714714,-0.003333333,-0.003333333,-0.534122944,-2.162512467,1,,782340,1,2025-06-22_16h54.39.070,ContPsyTracking,2024.2.4,104.7514196,2025-06-22 16h54.43.745144 -0400
0,0,0,0,0,0,0,,,,,,,,,,,,,,,,,3.354675055,-0.003333333,-0.003333333,-0.173342057,-2.320191463,1,,782340,1,2025-06-22_16h54.39.070,ContPsyTracking,2024.2.4,104.7514196,2025-06-22 16h54.43.745144 -0400
0,0,0,0,0,0,0,,,,,,,,,,,,,,,,,3.36464262,-0.003333333,-0.003333333,-0.143290288,-1.78454918,1,,782340,1,2025-06-22_16h54.39.070,ContPsyTracking,2024.2.4,104.7514196,2025-06-22 16h54.43.745144 -0400
0,0,0,0,0,0,0,,,,,,,,,,,,,,,,,3.37561512,-0.003333333,-0.003333333,-0.280464254,-1.852546911,1,,782340,1,2025-06-22_16h54.39.070,ContPsyTracking,2024.2.4,104.7514196,2025-06-22 16h54.43.745144 -0400
0,0,0,0,0,0,0,,,,,,,,,,,,,,,,,3.383574724,-0.003333333,-0.003333333,-0.400274993,-2.298346109,1,,782340,1,2025-06-22_16h54.39.070,ContPsyTracking,2024.2.4,104.7514196,2025-06-22 16h54.43.745144 -0400
0,0,0,0,0,0,0,,,,,,,,,,,,,,,,,3.395534515,-0.003333333,-0.006666667,-0.741313041,-2.178017778,1,,782340,1,2025-06-22_16h54.39.070,ContPsyTracking,2024.2.4,104.7514196,2025-06-22 16h54.43.745144 -0400
0,0,0,0,0,0,0,,,,,,,,,,,,,,,,,3.403512716,-0.005,-0.016666667,-0.500243251,-1.959186614,1,,782340,1,2025-06-22_16h54.39.070,ContPsyTracking,2024.2.4,104.7514196,2025-06-22 16h54.43.745144 -0400
0,0,0,0,0,0,0,,,,,,,,,,,,,,,,,3.414471149,-0.013333333,-0.033333333,-0.925518383,-1.408741721,1,,782340,1,2025-06-22_16h54.39.070,ContPsyTracking,2024.2.4,104.7514196,2025-06-22 16h54.43.745144 -0400
0,0,0,0,0,0,0,,,,,,,,,,,,,,,,,3.425435066,-0.023333333,-0.053333333,-0.905127095,-1.290677386,1,,782340,1,2025-06-22_16h54.39.070,ContPsyTracking,2024.2.4,104.7514196,2025-06-22 16h54.43.745144 -0400
0,0,0,0,0,0,0,,,,,,,,,,,,,,,,,3.432416201,-0.03,-0.073333333,-0.852904489,-1.278444476,1,,782340,1,2025-06-22_16h54.39.070,ContPsyTracking,2024.2.4,104.7514196,2025-06-22 16h54.43.745144 -0400
0,0,0,0,0,0,0,,,,,,,,,,,,,,,,,3.444376945,-0.033333333,-0.085,-0.407783414,-1.115313781,1,,782340,1,2025-06-22_16h54.39.070,ContPsyTracking,2024.2.4,104.7514196,2025-06-22 16h54.43.745144 -0400
0,0,0,0,0,0,0,,,,,,,,,,,,,,,,,3.451347828,-0.036666667,-0.106666667,-0.554430352,-1.467354097,1,,782340,1,2025-06-22_16h54.39.070,ContPsyTracking,2024.2.4,104.7514196,2025-06-22 16h54.43.745144 -0400
0,0,0,0,0,0,0,,,,,,,,,,,,,,,,,3.462318182,-0.038333333,-0.113333333,-0.268398787,-0.927808357,1,,782340,1,2025-06-22_16h54.39.070,ContPsyTracking,2024.2.4,104.7514196,2025-06-22 16h54.43.745144 -0400
0,0,0,0,0,0,0,,,,,,,,,,,,,,,,,3.470289707,-0.038333333,-0.118333333,-0.239735978,-0.997725367,1,,782340,1,2025-06-22_16h54.39.070,ContPsyTracking,2024.2.4,104.7514196,2025-06-22 16h54.43.745144 -0400
0,0,0,0,0,0,0,,,,,,,,,,,,,,,,,3.480255365,-0.038333333,-0.12,-0.533716496,-0.795368782,1,,782340,1,2025-06-22_16h54.39.070,ContPsyTracking,2024.2.4,104.7514196,2025-06-22 16h54.43.745144 -0400
0,0,0,0,0,0,0,,,,,,,,,,,,,,,,,3.489227057,-0.038333333,-0.121666667,-0.939535105,-1.548547906,1,,782340,1,2025-06-22_16h54.39.070,ContPsyTracking,2024.2.4,104.7514196,2025-06-22 16h54.43.745144 -0400
0,0,0,0,0,0,0,,,,,,,,,,,,,,,,,3.498195648,-0.038333333,-0.123333333,-1.462639352,-1.446187625,1,,782340,1,2025-06-22_16h54.39.070,ContPsyTracking,2024.2.4,104.7514196,2025-06-22 16h54.43.745144 -0400
0,0,0,0,0,0,0,,,,,,,,,,,,,,,,,3.509155512,-0.038333333,-0.126666667,-1.214058736,-1.058755342,1,,782340,1,2025-06-22_16h54.39.070,ContPsyTracking,2024.2.4,104.7514196,2025-06-22 16h54.43.745144 -0400
0,0,0,0,0,0,0,,,,,,,,,,,,,,,,,3.516136885,-0.04,-0.131666667,-0.984039093,-1.36814335,1,,782340,1,2025-06-22_16h54.39.070,ContPsyTracking,2024.2.4,104.7514196,2025-06-22 16h54.43.745144 -0400
0,0,0,0,0,0,0,,,,,,,,,,,,,,,,,3.52609849,-0.041666667,-0.135,-1.091608273,-1.878357617,1,,782340,1,2025-06-22_16h54.39.070,ContPsyTracking,2024.2.4,104.7514196,2025-06-22 16h54.43.745144 -0400
0,0,0,0,0,0,0,,,,,,,,,,,,,,,,,3.536064625,-0.041666667,-0.135,-1.181357258,-1.787303612,1,,782340,1,2025-06-22_16h54.39.070,ContPsyTracking,2024.2.4,104.7514196,2025-06-22 16h54.43.745144 -0400
0,0,0,0,0,0,0,,,,,,,,,,,,,,,,,3.547104359,-0.041666667,-0.135,-0.810103612,-1.195253168,1,,782340,1,2025-06-22_16h54.39.070,ContPsyTracking,2024.2.4,104.7514196,2025-06-22 16h54.43.745144 -0400
0,0,0,0,0,0,0,,,,,,,,,,,,,,,,,3.556059599,-0.041666667,-0.135,-0.837260106,-0.743721259,1,,782340,1,2025-06-22_16h54.39.070,ContPsyTracking,2024.2.4,104.7514196,2025-06-22 16h54.43.745144 -0400
0,0,0,0,0,0,0,,,,,,,,,,,,,,,,,3.566031933,-0.041666667,-0.135,-1.0053616,-0.848949068,1,,782340,1,2025-06-22_16h54.39.070,ContPsyTracking,2024.2.4,104.7514196,2025-06-22 16h54.43.745144 -0400
0,0,0,0,0,0,0,,,,,,,,,,,,,,,,,3.574997902,-0.041666667,-0.135,-0.83224788,-0.698199716,1,,782340,1,2025-06-22_16h54.39.070,ContPsyTracking,2024.2.4,104.7514196,2025-06-22 16h54.43.745144 -0400
0,0,0,0,0,0,0,,,,,,,,,,,,,,,,,3.58297348,-0.041666667,-0.135,-0.991618185,-0.649928311,1,,782340,1,2025-06-22_16h54.39.070,ContPsyTracking,2024.2.4,104.7514196,2025-06-22 16h54.43.745144 -0400
0,0,0,0,0,0,0,,,,,,,,,,,,,,,,,3.591939926,-0.041666667,-0.135,-0.722920906,-1.12012309,1,,782340,1,2025-06-22_16h54.39.070,ContPsyTracking,2024.2.4,104.7514196,2025-06-22 16h54.43.745144 -0400
0,0,0,0,0,0,0,,,,,,,,,,,,,,,,,3.602903128,-0.041666667,-0.135,-0.42005123,-0.733489886,1,,782340,1,2025-06-22_16h54.39.070,ContPsyTracking,2024.2.4,104.7514196,2025-06-22 16h54.43.745144 -0400
0,0,0,0,0,0,0,,,,,,,,,,,,,,,,,3.613870144,-0.041666667,-0.135,-0.100993877,-1.076985786,1,,782340,1,2025-06-22_16h54.39.070,ContPsyTracking,2024.2.4,104.7514196,2025-06-22 16h54.43.745144 -0400
0,0,0,0,0,0,0,,,,,,,,,,,,,,,,,3.621840477,-0.041666667,-0.135,0.277846394,-1.519949408,1,,782340,1,2025-06-22_16h54.39.070,ContPsyTracking,2024.2.4,104.7514196,2025-06-22 16h54.43.745144 -0400
0,0,0,0,0,0,0,,,,,,,,,,,,,,,,,3.631812811,-0.041666667,-0.135,0.659570513,-1.487520809,1,,782340,1,2025-06-22_16h54.39.070,ContPsyTracking,2024.2.4,104.7514196,2025-06-22 16h54.43.745144 -0400
0,0,0,0,0,0,0,,,,,,,,,,,,,,,,,3.640776634,-0.041666667,-0.135,0.416092808,-0.95698235,1,,782340,1,2025-06-22_16h54.39.070,ContPsyTracking,2024.2.4,104.7514196,2025-06-22 16h54.43.745144 -0400
0,0,0,0,0,0,0,,,,,,,,,,,,,,,,,3.64975071,-0.041666667,-0.135,0.516161197,-1.315239931,1,,782340,1,2025-06-22_16h54.39.070,ContPsyTracking,2024.2.4,104.7514196,2025-06-22 16h54.43.745144 -0400
0,0,0,0,0,0,0,,,,,,,,,,,,,,,,,3.659714937,-0.04,-0.135,0.698304706,-1.662734837,1,,782340,1,2025-06-22_16h54.39.070,ContPsyTracking,2024.2.4,104.7514196,2025-06-22 16h54.43.745144 -0400
0,0,0,0,0,0,0,,,,,,,,,,,,,,,,,3.668688774,-0.038333333,-0.135,0.82146781,-1.857790042,1,,782340,1,2025-06-22_16h54.39.070,ContPsyTracking,2024.2.4,104.7514196,2025-06-22 16h54.43.745144 -0400
0,0,0,0,0,0,0,,,,,,,,,,,,,,,,,3.677654743,-0.035,-0.133333333,0.551706073,-2.059877625,1,,782340,1,2025-06-22_16h54.39.070,ContPsyTracking,2024.2.4,104.7514196,2025-06-22 16h54.43.745144 -0400
0,0,0,0,0,0,0,,,,,,,,,,,,,,,,,3.688617706,-0.031666667,-0.126666667,0.020521961,-1.911108121,1,,782340,1,2025-06-22_16h54.39.070,ContPsyTracking,2024.2.4,104.7514196,2025-06-22 16h54.43.745144 -0400
0,0,0,0,0,0,0,,,,,,,,,,,,,,,,,3.698587179,-0.026666667,-0.116666667,0.272676208,-1.895134883,1,,782340,1,2025-06-22_16h54.39.070,ContPsyTracking,2024.2.4,104.7514196,2025-06-22 16h54.43.745144 -0400
0,0,0,0,0,0,0,,,,,,,,,,,,,,,,,3.707557678,-0.025,-0.108333333,0.214104833,-0.923024625,1,,782340,1,2025-06-22_16h54.39.070,ContPsyTracking,2024.2.4,104.7514196,2025-06-22 16h54.43.745144 -0400
0,0,0,0,0,0,0,,,,,,,,,,,,,,,,,3.717519999,-0.021666667,-0.1,0.366528978,-1.400149235,1,,782340,1,2025-06-22_16h54.39.070,ContPsyTracking,2024.2.4,104.7514196,2025-06-22 16h54.43.745144 -0400
0,0,0,0,0,0,0,,,,,,,,,,,,,,,,,3.7284832,-0.02,-0.095,0.175768377,-1.428333185,1,,782340,1,2025-06-22_16h54.39.070,ContPsyTracking,2024.2.4,104.7514196,2025-06-22 16h54.43.745144 -0400
0,0,0,0,0,0,0,,,,,,,,,,,,,,,,,3.736457825,-0.02,-0.091666667,0.146989922,-1.384666533,1,,782340,1,2025-06-22_16h54.39.070,ContPsyTracking,2024.2.4,104.7514196,2025-06-22 16h54.43.745144 -0400
0,0,0,0,0,0,0,,,,,,,,,,,,,,,,,3.747424364,-0.02,-0.09,0.358341245,-1.303153638,1,,782340,1,2025-06-22_16h54.39.070,ContPsyTracking,2024.2.4,104.7514196,2025-06-22 16h54.43.745144 -0400
0,0,0,0,0,0,0,,,,,,,,,,,,,,,,,3.75645566,-0.02,-0.09,0.383430397,-1.831516335,1,,782340,1,2025-06-22_16h54.39.070,ContPsyTracking,2024.2.4,104.7514196,2025-06-22 16h54.43.745144 -0400
0,0,0,0,0,0,0,,,,,,,,,,,,,,,,,3.76542902,-0.02,-0.09,0.409121773,-1.61099282,1,,782340,1,2025-06-22_16h54.39.070,ContPsyTracking,2024.2.4,104.7514196,2025-06-22 16h54.43.745144 -0400
0,0,0,0,0,0,0,,,,,,,,,,,,,,,,,3.774396658,-0.023333333,-0.09,0.121169047,-1.470551044,1,,782340,1,2025-06-22_16h54.39.070,ContPsyTracking,2024.2.4,104.7514196,2025-06-22 16h54.43.745144 -0400
0,0,0,0,0,0,0,,,,,,,,,,,,,,,,,3.783368826,-0.025,-0.093333333,0.280015648,-1.838325911,1,,782340,1,2025-06-22_16h54.39.070,ContPsyTracking,2024.2.4,104.7514196,2025-06-22 16h54.43.745144 -0400
0,0,0,0,0,0,0,,,,,,,,,,,,,,,,,3.792334795,-0.028333333,-0.095,0.299208143,-2.278622167,1,,782340,1,2025-06-22_16h54.39.070,ContPsyTracking,2024.2.4,104.7514196,2025-06-22 16h54.43.745144 -0400
0,0,0,0,0,0,0,,,,,,,,,,,,,,,,,3.802302361,-0.028333333,-0.096666667,0.216767606,-2.259539124,1,,782340,1,2025-06-22_16h54.39.070,ContPsyTracking,2024.2.4,104.7514196,2025-06-22 16h54.43.745144 -0400
0,0,0,0,0,0,0,,,,,,,,,,,,,,,,,3.810275793,-0.028333333,-0.096666667,0.144211193,-2.370586975,1,,782340,1,2025-06-22_16h54.39.070,ContPsyTracking,2024.2.4,104.7514196,2025-06-22 16h54.43.745144 -0400
0,0,0,0,0,0,0,,,,,,,,,,,,,,,,,3.821238995,-0.028333333,-0.096666667,0.386640158,-2.250949853,1,,782340,1,2025-06-22_16h54.39.070,ContPsyTracking,2024.2.4,104.7514196,2025-06-22 16h54.43.745144 -0400
0,0,0,0,0,0,0,,,,,,,,,,,,,,,,,3.831204891,-0.028333333,-0.09,0.098976063,-2.253641472,1,,782340,1,2025-06-22_16h54.39.070,ContPsyTracking,2024.2.4,104.7514196,2025-06-22 16h54.43.745144 -0400
0,0,0,0,0,0,0,,,,,,,,,,,,,,,,,3.843166351,-0.028333333,-0.08,0.165483558,-2.925570203,1,,782340,1,2025-06-22_16h54.39.070,ContPsyTracking,2024.2.4,104.7514196,2025-06-22 16h54.43.745144 -0400
0,0,0,0,0,0,0,,,,,,,,,,,,,,,,,3.850148916,-0.03,-0.071666667,0.147068228,-2.663239419,1,,782340,1,2025-06-22_16h54.39.070,ContPsyTracking,2024.2.4,104.7514196,2025-06-22 16h54.43.745144 -0400
0,0,0,0,0,0,0,,,,,,,,,,,,,,,,,3.859114647,-0.03,-0.07,0.472196879,-3.141103317,1,,782340,1,2025-06-22_16h54.39.070,ContPsyTracking,2024.2.4,104.7514196,2025-06-22 16h54.43.745144 -0400
0,0,0,0,0,0,0,,,,,,,,,,,,,,,,,3.869078636,-0.03,-0.068333333,0.571554522,-3.108116563,1,,782340,1,2025-06-22_16h54.39.070,ContPsyTracking,2024.2.4,104.7514196,2025-06-22 16h54.43.745144 -0400
0,0,0,0,0,0,0,,,,,,,,,,,,,,,,,3.880045652,-0.03,-0.068333333,0.732474832,-2.928800289,1,,782340,1,2025-06-22_16h54.39.070,ContPsyTracking,2024.2.4,104.7514196,2025-06-22 16h54.43.745144 -0400
0,0,0,0,0,0,0,,,,,,,,,,,,,,,,,3.889017582,-0.03,-0.068333333,0.527753768,-2.700905887,1,,782340,1,2025-06-22_16h54.39.070,ContPsyTracking,2024.2.4,104.7514196,2025-06-22 16h54.43.745144 -0400
0,0,0,0,0,0,0,,,,,,,,,,,,,,,,,3.898977995,-0.03,-0.068333333,0.514524018,-2.874328358,1,,782340,1,2025-06-22_16h54.39.070,ContPsyTracking,2024.2.4,104.7514196,2025-06-22 16h54.43.745144 -0400
0,0,0,0,0,0,0,,,,,,,,,,,,,,,,,3.907948256,-0.03,-0.068333333,-0.169693817,-3.193588213,1,,782340,1,2025-06-22_16h54.39.070,ContPsyTracking,2024.2.4,104.7514196,2025-06-22 16h54.43.745144 -0400
0,0,0,0,0,0,0,,,,,,,,,,,,,,,,,3.916922092,-0.03,-0.068333333,-0.047308962,-3.114454043,1,,782340,1,2025-06-22_16h54.39.070,ContPsyTracking,2024.2.4,104.7514196,2025-06-22 16h54.43.745144 -0400
0,0,0,0,0,0,0,,,,,,,,,,,,,,,,,3.925890684,-0.03,-0.07,-0.028033501,-2.991768948,1,,782340,1,2025-06-22_16h54.39.070,ContPsyTracking,2024.2.4,104.7514196,2025-06-22 16h54.43.745144 -0400
0,0,0,0,0,0,0,,,,,,,,,,,,,,,,,3.934858322,-0.03,-0.07,-0.040153427,-2.96393823,1,,782340,1,2025-06-22_16h54.39.070,ContPsyTracking,2024.2.4,104.7514196,2025-06-22 16h54.43.745144 -0400
0,0,0,0,0,0,0,,,,,,,,,,,,,,,,,3.943828106,-0.03,-0.07,0.108145521,-2.566558667,1,,782340,1,2025-06-22_16h54.39.070,ContPsyTracking,2024.2.4,104.7514196,2025-06-22 16h54.43.745144 -0400
0,0,0,0,0,0,0,,,,,,,,,,,,,,,,,3.954792023,-0.03,-0.07,0.023661969,-2.661748986,1,,782340,1,2025-06-22_16h54.39.070,ContPsyTracking,2024.2.4,104.7514196,2025-06-22 16h54.43.745144 -0400
0,0,0,0,0,0,0,,,,,,,,,,,,,,,,,3.965754986,-0.03,-0.07,-0.01492606,-2.884974017,1,,782340,1,2025-06-22_16h54.39.070,ContPsyTracking,2024.2.4,104.7514196,2025-06-22 16h54.43.745144 -0400
0,0,0,0,0,0,0,,,,,,,,,,,,,,,,,3.974725485,-0.03,-0.07,-0.033162971,-2.319590141,1,,782340,1,2025-06-22_16h54.39.070,ContPsyTracking,2024.2.4,104.7514196,2025-06-22 16h54.43.745144 -0400
0,0,0,0,0,0,0,,,,,,,,,,,,,,,,,3.983701468,-0.026666667,-0.07,0.040575241,-2.617922838,1,,782340,1,2025-06-22_16h54.39.070,ContPsyTracking,2024.2.4,104.7514196,2025-06-22 16h54.43.745144 -0400
0,0,0,0,0,0,0,,,,,,,,,,,,,,,,,3.992666483,-0.021666667,-0.073333333,0.23179945,-2.434956618,1,,782340,1,2025-06-22_16h54.39.070,ContPsyTracking,2024.2.4,104.7514196,2025-06-22 16h54.43.745144 -0400
0,0,0,0,0,0,0,,,,,,,,,,,,,,,,,4.002631426,-0.013333333,-0.075,0.649967882,-2.7259126,1,,782340,1,2025-06-22_16h54.39.070,ContPsyTracking,2024.2.4,104.7514196,2025-06-22 16h54.43.745144 -0400
0,0,0,0,0,0,0,,,,,,,,,,,,,,,,,4.014591932,-0.003333333,-0.078333333,0.829101382,-2.637888556,1,,782340,1,2025-06-22_16h54.39.070,ContPsyTracking,2024.2.4,104.7514196,2025-06-22 16h54.43.745144 -0400
0,0,0,0,0,0,0,,,,,,,,,,,,,,,,,4.026551247,0.008333333,-0.078333333,0.983288979,-2.829892283,1,,782340,1,2025-06-22_16h54.39.070,ContPsyTracking,2024.2.4,104.7514196,2025-06-22 16h54.43.745144 -0400
0,0,0,0,0,0,0,,,,,,,,,,,,,,,,,4.040505171,0.016666667,-0.081666667,0.355458015,-3.002054185,1,,782340,1,2025-06-22_16h54.39.070,ContPsyTracking,2024.2.4,104.7514196,2025-06-22 16h54.43.745144 -0400
0,0,0,0,0,0,0,,,,,,,,,,,,,,,,,4.050475836,0.02,-0.086666667,0.439852445,-3.436248284,1,,782340,1,2025-06-22_16h54.39.070,ContPsyTracking,2024.2.4,104.7514196,2025-06-22 16h54.43.745144 -0400
0,0,0,0,0,0,0,,,,,,,,,,,,,,,,,4.062435627,0.023333333,-0.09,0.609689854,-2.839970204,1,,782340,1,2025-06-22_16h54.39.070,ContPsyTracking,2024.2.4,104.7514196,2025-06-22 16h54.43.745144 -0400
0,0,0,0,0,0,0,,,,,,,,,,,,,,,,,4.077381611,0.023333333,-0.101666667,0.585061433,-3.122249357,1,,782340,1,2025-06-22_16h54.39.070,ContPsyTracking,2024.2.4,104.7514196,2025-06-22 16h54.43.745144 -0400
0,0,0,0,0,0,0,,,,,,,,,,,,,,,,,4.088346004,0.025,-0.111666667,1.165328398,-3.127098865,1,,782340,1,2025-06-22_16h54.39.070,ContPsyTracking,2024.2.4,104.7514196,2025-06-22 16h54.43.745144 -0400
0,0,0,0,0,0,0,,,,,,,,,,,,,,,,,4.099312544,0.025,-0.116666667,1.16835491,-3.074357426,1,,782340,1,2025-06-22_16h54.39.070,ContPsyTracking,2024.2.4,104.7514196,2025-06-22 16h54.43.745144 -0400
0,0,0,0,0,0,0,,,,,,,,,,,,,,,,,4.109278917,0.025,-0.121666667,0.855046023,-3.583638331,1,,782340,1,2025-06-22_16h54.39.070,ContPsyTracking,2024.2.4,104.7514196,2025-06-22 16h54.43.745144 -0400
0,0,0,0,0,0,0,,,,,,,,,,,,,,,,,4.118248701,0.025,-0.125,1.080247231,-3.522712773,1,,782340,1,2025-06-22_16h54.39.070,ContPsyTracking,2024.2.4,104.7514196,2025-06-22 16h54.43.745144 -0400
0,0,0,0,0,0,0,,,,,,,,,,,,,,,,,4.129212618,0.025,-0.128333333,1.137635406,-3.540359246,1,,782340,1,2025-06-22_16h54.39.070,ContPsyTracking,2024.2.4,104.7514196,2025-06-22 16h54.43.745144 -0400
0,0,0,0,0,0,0,,,,,,,,,,,,,,,,,4.137181997,0.026666667,-0.13,1.142562394,-3.356352943,1,,782340,1,2025-06-22_16h54.39.070,ContPsyTracking,2024.2.4,104.7514196,2025-06-22 16h54.43.745144 -0400
0,0,0,0,0,0,0,,,,,,,,,,,,,,,,,4.147953033,0.026666667,-0.13,0.935148578,-3.007755935,1,,782340,1,2025-06-22_16h54.39.070,ContPsyTracking,2024.2.4,104.7514196,2025-06-22 16h54.43.745144 -0400
0,0,0,0,0,0,0,,,,,,,,,,,,,,,,,4.159457684,0.026666667,-0.13,1.120523733,-3.421098792,1,,782340,1,2025-06-22_16h54.39.070,ContPsyTracking,2024.2.4,104.7514196,2025-06-22 16h54.43.745144 -0400
0,0,0,0,0,0,0,,,,,,,,,,,,,,,,,4.166811705,0.026666667,-0.131666667,1.72650706,-3.694721294,1,,782340,1,2025-06-22_16h54.39.070,ContPsyTracking,2024.2.4,104.7514196,2025-06-22 16h54.43.745144 -0400
0,0,0,0,0,0,0,,,,,,,,,,,,,,,,,4.177775621,0.026666667,-0.133333333,1.64493622,-3.444464497,1,,782340,1,2025-06-22_16h54.39.070,ContPsyTracking,2024.2.4,104.7514196,2025-06-22 16h54.43.745144 -0400
0,0,0,0,0,0,0,,,,,,,,,,,,,,,,,4.191724777,0.021666667,-0.136666667,2.083125066,-3.206524955,1,,782340,1,2025-06-22_16h54.39.070,ContPsyTracking,2024.2.4,104.7514196,2025-06-22 16h54.43.745144 -0400
0,0,0,0,0,0,0,,,,,,,,,,,,,,,,,4.203684568,0.016666667,-0.14,1.253313176,-3.237930867,1,,782340,1,2025-06-22_16h54.39.070,ContPsyTracking,2024.2.4,104.7514196,2025-06-22 16h54.43.745144 -0400
0,0,0,0,0,0,0,,,,,,,,,,,,,,,,,4.214646816,0.016666667,-0.14,1.223988553,-2.878650234,1,,782340,1,2025-06-22_16h54.39.070,ContPsyTracking,2024.2.4,104.7514196,2025-06-22 16h54.43.745144 -0400
0,0,0,0,0,0,0,,,,,,,,,,,,,,,,,4.223618507,0.016666667,-0.14,1.618349141,-3.268520741,1,,782340,1,2025-06-22_16h54.39.070,ContPsyTracking,2024.2.4,104.7514196,2025-06-22 16h54.43.745144 -0400
0,0,0,0,0,0,0,,,,,,,,,,,,,,,,,4.233583927,0.016666667,-0.14,1.477951103,-3.267266928,1,,782340,1,2025-06-22_16h54.39.070,ContPsyTracking,2024.2.4,104.7514196,2025-06-22 16h54.43.745144 -0400
0,0,0,0,0,0,0,,,,,,,,,,,,,,,,,4.244572163,0.016666667,-0.14,1.452897402,-3.026871912,1,,782340,1,2025-06-22_16h54.39.070,ContPsyTracking,2024.2.4,104.7514196,2025-06-22 16h54.43.745144 -0400
0,0,0,0,0,0,0,,,,,,,,,,,,,,,,,4.251168013,0.016666667,-0.14,1.242323385,-3.031135047,1,,782340,1,2025-06-22_16h54.39.070,ContPsyTracking,2024.2.4,104.7514196,2025-06-22 16h54.43.745144 -0400
0,0,0,0,0,0,0,,,,,,,,,,,,,,,,,4.263183117,0.016666667,-0.14,0.990507816,-3.242839495,1,,782340,1,2025-06-22_16h54.39.070,ContPsyTracking,2024.2.4,104.7514196,2025-06-22 16h54.43.745144 -0400
0,0,0,0,0,0,0,,,,,,,,,,,,,,,,,4.277131557,0.015,-0.141666667,0.849283499,-3.218916997,1,,782340,1,2025-06-22_16h54.39.070,ContPsyTracking,2024.2.4,104.7514196,2025-06-22 16h54.43.745144 -0400
0,0,0,0,0,0,0,,,,,,,,,,,,,,,,,4.289091587,0.015,-0.143333333,0.386855865,-3.063700217,1,,782340,1,2025-06-22_16h54.39.070,ContPsyTracking,2024.2.4,104.7514196,2025-06-22 16h54.43.745144 -0400
0,0,0,0,0,0,0,,,,,,,,,,,,,,,,,4.299058914,0.015,-0.143333333,-0.452373335,-3.139570589,1,,782340,1,2025-06-22_16h54.39.070,ContPsyTracking,2024.2.4,104.7514196,2025-06-22 16h54.43.745144 -0400
0,0,0,0,0,0,0,,,,,,,,,,,,,,,,,4.311023474,0.016666667,-0.146666667,-0.396101511,-3.764504459,1,,782340,1,2025-06-22_16h54.39.070,ContPsyTracking,2024.2.4,104.7514196,2025-06-22 16h54.43.745144 -0400
0,0,0,0,0,0,0,,,,,,,,,,,,,,,,,4.326967239,0.02,-0.148333333,-0.215488312,-3.975015305,1,,782340,1,2025-06-22_16h54.39.070,ContPsyTracking,2024.2.4,104.7514196,2025-06-22 16h54.43.745144 -0400
0,0,0,0,0,0,0,,,,,,,,,,,,,,,,,4.336931944,0.028333333,-0.151666667,-0.947070648,-4.106622863,1,,782340,1,2025-06-22_16h54.39.070,ContPsyTracking,2024.2.4,104.7514196,2025-06-22 16h54.43.745144 -0400
0,0,0,0,0,0,0,,,,,,,,,,,,,,,,,4.34789896,0.031666667,-0.153333333,-1.789200215,-3.905958417,1,,782340,1,2025-06-22_16h54.39.070,ContPsyTracking,2024.2.4,104.7514196,2025-06-22 16h54.43.745144 -0400
0,0,0,0,0,0,0,,,,,,,,,,,,,,,,,4.361848831,0.031666667,-0.155,-1.715872405,-3.581204906,1,,782340,1,2025-06-22_16h54.39.070,ContPsyTracking,2024.2.4,104.7514196,2025-06-22 16h54.43.745144 -0400
0,0,0,0,0,0,0,,,,,,,,,,,,,,,,,4.374805689,0.031666667,-0.155,-2.08314136,-3.823305446,1,,782340,1,2025-06-22_16h54.39.070,ContPsyTracking,2024.2.4,104.7514196,2025-06-22 16h54.43.745144 -0400
0,0,0,0,0,0,0,,,,,,,,,,,,,,,,,4.384771585,0.035,-0.156666667,-1.97713369,-3.881645943,1,,782340,1,2025-06-22_16h54.39.070,ContPsyTracking,2024.2.4,104.7514196,2025-06-22 16h54.43.745144 -0400
0,0,0,0,0,0,0,,,,,,,,,,,,,,,,,4.395740271,0.038333333,-0.161666667,-2.224709101,-4.049288597,1,,782340,1,2025-06-22_16h54.39.070,ContPsyTracking,2024.2.4,104.7514196,2025-06-22 16h54.43.745144 -0400
0,0,0,0,0,0,0,,,,,,,,,,,,,,,,,4.410686731,0.045,-0.17,-2.027559225,-4.141002919,1,,782340,1,2025-06-22_16h54.39.070,ContPsyTracking,2024.2.4,104.7514196,2025-06-22 16h54.43.745144 -0400
0,0,0,0,0,0,0,,,,,,,,,,,,,,,,,4.421655416,0.065,-0.181666667,-1.950520447,-3.958809155,1,,782340,1,2025-06-22_16h54.39.070,ContPsyTracking,2024.2.4,104.7514196,2025-06-22 16h54.43.745144 -0400
0,0,0,0,0,0,0,,,,,,,,,,,,,,,,,4.432611942,0.086666667,-0.188333333,-1.751929853,-4.026405946,1,,782340,1,2025-06-22_16h54.39.070,ContPsyTracking,2024.2.4,104.7514196,2025-06-22 16h54.43.745144 -0400
0,0,0,0,0,0,0,,,,,,,,,,,,,,,,,4.444947004,0.105,-0.191666667,-1.374936285,-4.432328545,1,,782340,1,2025-06-22_16h54.39.070,ContPsyTracking,2024.2.4,104.7514196,2025-06-22 16h54.43.745144 -0400
0,0,0,0,0,0,0,,,,,,,,,,,,,,,,,4.458926916,0.12,-0.195,-1.475236045,-4.211925764,1,,782340,1,2025-06-22_16h54.39.070,ContPsyTracking,2024.2.4,104.7514196,2025-06-22 16h54.43.745144 -0400
0,0,0,0,0,0,0,,,,,,,,,,,,,,,,,4.469609022,0.13,-0.2,-1.535915882,-3.568033019,1,,782340,1,2025-06-22_16h54.39.070,ContPsyTracking,2024.2.4,104.7514196,2025-06-22 16h54.43.745144 -0400
0,0,0,0,0,0,0,,,,,,,,,,,,,,,,,4.481416702,0.13,-0.2,-1.735245272,-3.767946995,1,,782340,1,2025-06-22_16h54.39.070,ContPsyTracking,2024.2.4,104.7514196,2025-06-22 16h54.43.745144 -0400
0,0,0,0,0,0,0,,,,,,,,,,,,,,,,,4.49297595,0.13,-0.2,-2.358505471,-3.710955529,1,,782340,1,2025-06-22_16h54.39.070,ContPsyTracking,2024.2.4,104.7514196,2025-06-22 16h54.43.745144 -0400
0,0,0,0,0,0,0,,,,,,,,,,,,,,,,,4.499945402,0.13,-0.2,-2.20841048,-4.002740178,1,,782340,1,2025-06-22_16h54.39.070,ContPsyTracking,2024.2.4,104.7514196,2025-06-22 16h54.43.745144 -0400
0,0,0,0,0,0,0,,,,,,,,,,,,,,,,,4.511697054,0.13,-0.201666667,-2.169788225,-3.633123573,1,,782340,1,2025-06-22_16h54.39.070,ContPsyTracking,2024.2.4,104.7514196,2025-06-22 16h54.43.745144 -0400
0,0,0,0,0,0,0,,,,,,,,,,,,,,,,,4.525353432,0.13,-0.205,-2.239953624,-3.279831501,1,,782340,1,2025-06-22_16h54.39.070,ContPsyTracking,2024.2.4,104.7514196,2025-06-22 16h54.43.745144 -0400
0,0,0,0,0,0,0,,,,,,,,,,,,,,,,,4.536710501,0.128333333,-0.206666667,-2.11282694,-3.064470126,1,,782340,1,2025-06-22_16h54.39.070,ContPsyTracking,2024.2.4,104.7514196,2025-06-22 16h54.43.745144 -0400
0,0,0,0,0,0,0,,,,,,,,,,,,,,,,,4.547670126,0.126666667,-0.208333333,-2.409116468,-2.910843279,1,,782340,1,2025-06-22_16h54.39.070,ContPsyTracking,2024.2.4,104.7514196,2025-06-22 16h54.43.745144 -0400
0,0,0,0,0,0,0,,,,,,,,,,,,,,,,,4.559635401,0.123333333,-0.208333333,-2.345620727,-2.548384887,1,,782340,1,2025-06-22_16h54.39.070,ContPsyTracking,2024.2.4,104.7514196,2025-06-22 16h54.43.745144 -0400
0,0,0,0,0,0,0,,,,,,,,,,,,,,,,,4.574581385,0.115,-0.208333333,-2.490557025,-2.839480485,1,,782340,1,2025-06-22_16h54.39.070,ContPsyTracking,2024.2.4,104.7514196,2025-06-22 16h54.43.745144 -0400
0,0,0,0,0,0,0,,,,,,,,,,,,,,,,,4.583555222,0.101666667,-0.208333333,-2.450564634,-2.540936536,1,,782340,1,2025-06-22_16h54.39.070,ContPsyTracking,2024.2.4,104.7514196,2025-06-22 16h54.43.745144 -0400
0,0,0,0,0,0,0,,,,,,,,,,,,,,,,,4.596506834,0.093333333,-0.208333333,-2.564782883,-2.305420487,1,,782340,1,2025-06-22_16h54.39.070,ContPsyTracking,2024.2.4,104.7514196,2025-06-22 16h54.43.745144 -0400
0,0,0,0,0,0,0,,,,,,,,,,,,,,,,,4.611463785,0.078333333,-0.208333333,-2.535501012,-2.568380676,1,,782340,1,2025-06-22_16h54.39.070,ContPsyTracking,2024.2.4,104.7514196,2025-06-22 16h54.43.745144 -0400
0,0,0,0,0,0,0,,,,,,,,,,,,,,,,,4.62042737,0.056666667,-0.208333333,-2.075909693,-2.096606502,1,,782340,1,2025-06-22_16h54.39.070,ContPsyTracking,2024.2.4,104.7514196,2025-06-22 16h54.43.745144 -0400
0,0,0,0,0,0,0,,,,,,,,,,,,,,,,,4.632390738,0.041666667,-0.21,-1.880958556,-2.473913292,1,,782340,1,2025-06-22_16h54.39.070,ContPsyTracking,2024.2.4,104.7514196,2025-06-22 16h54.43.745144 -0400
0,0,0,0,0,0,0,,,,,,,,,,,,,,,,,4.644351959,0.028333333,-0.216666667,-1.643292941,-2.415934036,1,,782340,1,2025-06-22_16h54.39.070,ContPsyTracking,2024.2.4,104.7514196,2025-06-22 16h54.43.745144 -0400
0,0,0,0,0,0,0,,,,,,,,,,,,,,,,,4.659297228,0.02,-0.223333333,-1.4890863,-2.526604017,1,,782340,1,2025-06-22_16h54.39.070,ContPsyTracking,2024.2.4,104.7514196,2025-06-22 16h54.43.745144 -0400
0,0,0,0,0,0,0,,,,,,,,,,,,,,,,,4.670260668,0.016666667,-0.23,-1.017619327,-2.578080674,1,,782340,1,2025-06-22_16h54.39.070,ContPsyTracking,2024.2.4,104.7514196,2025-06-22 16h54.43.745144 -0400
0,0,0,0,0,0,0,,,,,,,,,,,,,,,,,4.680888653,0.016666667,-0.23,-1.480962003,-3.008185058,1,,782340,1,2025-06-22_16h54.39.070,ContPsyTracking,2024.2.4,104.7514196,2025-06-22 16h54.43.745144 -0400
0,0,0,0,0,0,0,,,,,,,,,,,,,,,,,4.693437815,0.016666667,-0.23,-1.140705294,-2.748259269,1,,782340,1,2025-06-22_16h54.39.070,ContPsyTracking,2024.2.4,104.7514196,2025-06-22 16h54.43.745144 -0400
0,0,0,0,0,0,0,,,,,,,,,,,,,,,,,4.708394289,0.016666667,-0.23,-0.675429032,-2.48335719,1,,782340,1,2025-06-22_16h54.39.070,ContPsyTracking,2024.2.4,104.7514196,2025-06-22 16h54.43.745144 -0400
0,0,0,0,0,0,0,,,,,,,,,,,,,,,,,4.71835494,0.013333333,-0.23,-0.497453594,-2.547025625,1,,782340,1,2025-06-22_16h54.39.070,ContPsyTracking,2024.2.4,104.7514196,2025-06-22 16h54.43.745144 -0400
0,0,0,0,0,0,0,,,,,,,,,,,,,,,,,4.729951382,0.008333333,-0.228333333,-0.783706918,-2.077345873,1,,782340,1,2025-06-22_16h54.39.070,ContPsyTracking,2024.2.4,104.7514196,2025-06-22 16h54.43.745144 -0400
0,0,0,0,0,0,0,,,,,,,,,,,,,,,,,4.745190859,0,-0.225,-1.056200635,-1.76201797,1,,782340,1,2025-06-22_16h54.39.070,ContPsyTracking,2024.2.4,104.7514196,2025-06-22 16h54.43.745144 -0400
0,0,0,0,0,0,0,,,,,,,,,,,,,,,,,4.755157948,-0.015,-0.221666667,-1.427217605,-1.826670833,1,,782340,1,2025-06-22_16h54.39.070,ContPsyTracking,2024.2.4,104.7514196,2025-06-22 16h54.43.745144 -0400
0,0,0,0,0,0,0,,,,,,,,,,,,,,,,,4.766777039,-0.026666667,-0.218333333,-1.30718306,-1.287848835,1,,782340,1,2025-06-22_16h54.39.070,ContPsyTracking,2024.2.4,104.7514196,2025-06-22 16h54.43.745144 -0400
0,0,0,0,0,0,0,,,,,,,,,,,,,,,,,4.779501677,-0.043333333,-0.21,-1.420935831,-1.436491955,1,,782340,1,2025-06-22_16h54.39.070,ContPsyTracking,2024.2.4,104.7514196,2025-06-22 16h54.43.745144 -0400
0,0,0,0,0,0,0,,,,,,,,,,,,,,,,,4.791129112,-0.071666667,-0.196666667,-1.026507365,-1.524879883,1,,782340,1,2025-06-22_16h54.39.070,ContPsyTracking,2024.2.4,104.7514196,2025-06-22 16h54.43.745144 -0400
0,0,0,0,0,0,0,,,,,,,,,,,,,,,,,4.808777809,-0.098333333,-0.181666667,-0.820561592,-1.789370199,1,,782340,1,2025-06-22_16h54.39.070,ContPsyTracking,2024.2.4,104.7514196,2025-06-22 16h54.43.745144 -0400
0,0,0,0,0,0,0,,,,,,,,,,,,,,,,,4.822337866,-0.12,-0.16,-0.323549283,-1.655668499,1,,782340,1,2025-06-22_16h54.39.070,ContPsyTracking,2024.2.4,104.7514196,2025-06-22 16h54.43.745144 -0400
0,0,0,0,0,0,0,,,,,,,,,,,,,,,,,4.833136082,-0.126666667,-0.136666667,-0.364725198,-1.923033809,1,,782340,1,2025-06-22_16h54.39.070,ContPsyTracking,2024.2.4,104.7514196,2025-06-22 16h54.43.745144 -0400
0,0,0,0,0,0,0,,,,,,,,,,,,,,,,,4.84539032,-0.128333333,-0.12,-0.115705893,-1.913328122,1,,782340,1,2025-06-22_16h54.39.070,ContPsyTracking,2024.2.4,104.7514196,2025-06-22 16h54.43.745144 -0400
0,0,0,0,0,0,0,,,,,,,,,,,,,,,,,4.859444857,-0.128333333,-0.105,-0.080664935,-1.714324349,1,,782340,1,2025-06-22_16h54.39.070,ContPsyTracking,2024.2.4,104.7514196,2025-06-22 16h54.43.745144 -0400
0,0,0,0,0,0,0,,,,,,,,,,,,,,,,,4.870234966,-0.128333333,-0.101666667,0.141682554,-1.771314869,1,,782340,1,2025-06-22_16h54.39.070,ContPsyTracking,2024.2.4,104.7514196,2025-06-22 16h54.43.745144 -0400
0,0,0,0,0,0,0,,,,,,,,,,,,,,,,,4.882590294,-0.128333333,-0.101666667,-0.480780153,-1.566856802,1,,782340,1,2025-06-22_16h54.39.070,ContPsyTracking,2024.2.4,104.7514196,2025-06-22 16h54.43.745144 -0400
0,0,0,0,0,0,0,,,,,,,,,,,,,,,,,4.896024466,-0.128333333,-0.101666667,-0.642046231,-1.512310039,1,,782340,1,2025-06-22_16h54.39.070,ContPsyTracking,2024.2.4,104.7514196,2025-06-22 16h54.43.745144 -0400
0,0,0,0,0,0,0,,,,,,,,,,,,,,,,,4.907986641,-0.126666667,-0.101666667,-0.616963909,-1.340875499,1,,782340,1,2025-06-22_16h54.39.070,ContPsyTracking,2024.2.4,104.7514196,2025-06-22 16h54.43.745144 -0400
0,0,0,0,0,0,0,,,,,,,,,,,,,,,,,4.917952538,-0.126666667,-0.101666667,-0.307716863,-1.388474577,1,,782340,1,2025-06-22_16h54.39.070,ContPsyTracking,2024.2.4,104.7514196,2025-06-22 16h54.43.745144 -0400
0,0,0,0,0,0,0,,,,,,,,,,,,,,,,,4.929908514,-0.126666667,-0.101666667,-0.623277322,-1.607925027,1,,782340,1,2025-06-22_16h54.39.070,ContPsyTracking,2024.2.4,104.7514196,2025-06-22 16h54.43.745144 -0400
0,0,0,0,0,0,0,,,,,,,,,,,,,,,,,4.944436073,-0.125,-0.1,-0.295199251,-1.32221239,1,,782340,1,2025-06-22_16h54.39.070,ContPsyTracking,2024.2.4,104.7514196,2025-06-22 16h54.43.745144 -0400
0,0,0,0,0,0,0,,,,,,,,,,,,,,,,,4.953210831,-0.118333333,-0.098333333,-0.312164163,-1.180582045,1,,782340,1,2025-06-22_16h54.39.070,ContPsyTracking,2024.2.4,104.7514196,2025-06-22 16h54.43.745144 -0400
0,0,0,0,0,0,0,,,,,,,,,,,,,,,,,4.966603518,-0.113333333,-0.096666667,-0.490800844,-1.84256507,1,,782340,1,2025-06-22_16h54.39.070,ContPsyTracking,2024.2.4,104.7514196,2025-06-22 16h54.43.745144 -0400
0,0,0,0,0,0,0,,,,,,,,,,,,,,,,,4.978634119,-0.103333333,-0.096666667,-0.487188711,-2.097267046,1,,782340,1,2025-06-22_16h54.39.070,ContPsyTracking,2024.2.4,104.7514196,2025-06-22 16h54.43.745144 -0400
0,0,0,0,0,0,0,,,,,,,,,,,,,,,,,4.993714571,-0.09,-0.096666667,-0.602994444,-2.242728293,1,,782340,1,2025-06-22_16h54.39.070,ContPsyTracking,2024.2.4,104.7514196,2025-06-22 16h54.43.745144 -0400
0,0,0,0,0,0,0,,,,,,,,,,,,,,,,,5.003673553,-0.073333333,-0.093333333,-0.205717339,-2.515162987,1,,782340,1,2025-06-22_16h54.39.070,ContPsyTracking,2024.2.4,104.7514196,2025-06-22 16h54.43.745144 -0400
0,0,0,0,0,0,0,,,,,,,,,,,,,,,,,5.014422417,-0.065,-0.09,0.496259379,-2.672887511,1,,782340,1,2025-06-22_16h54.39.070,ContPsyTracking,2024.2.4,104.7514196,2025-06-22 16h54.43.745144 -0400
0,0,0,0,0,0,0,,,,,,,,,,,,,,,,,5.026845694,-0.061666667,-0.088333333,0.612744729,-2.168258188,1,,782340,1,2025-06-22_16h54.39.070,ContPsyTracking,2024.2.4,104.7514196,2025-06-22 16h54.43.745144 -0400
0,0,0,0,0,0,0,,,,,,,,,,,,,,,,,5.041805506,-0.061666667,-0.088333333,0.534143714,-2.299372118,1,,782340,1,2025-06-22_16h54.39.070,ContPsyTracking,2024.2.4,104.7514196,2025-06-22 16h54.43.745144 -0400
0,0,0,0,0,0,0,,,,,,,,,,,,,,,,,5.052761793,-0.061666667,-0.088333333,0.599582985,-2.006203651,1,,782340,1,2025-06-22_16h54.39.070,ContPsyTracking,2024.2.4,104.7514196,2025-06-22 16h54.43.745144 -0400
0,0,0,0,0,0,0,,,,,,,,,,,,,,,,,5.064713717,-0.06,-0.088333333,0.433773558,-1.743447514,1,,782340,1,2025-06-22_16h54.39.070,ContPsyTracking,2024.2.4,104.7514196,2025-06-22 16h54.43.745144 -0400
0,0,0,0,0,0,0,,,,,,,,,,,,,,,,,5.076609135,-0.056666667,-0.088333333,0.276214782,-1.743630351,1,,782340,1,2025-06-22_16h54.39.070,ContPsyTracking,2024.2.4,104.7514196,2025-06-22 16h54.43.745144 -0400
0,0,0,0,0,0,0,,,,,,,,,,,,,,,,,5.090556145,-0.048333333,-0.09,0.619455207,-2.13413599,1,,782340,1,2025-06-22_16h54.39.070,ContPsyTracking,2024.2.4,104.7514196,2025-06-22 16h54.43.745144 -0400
0,0,0,0,0,0,0,,,,,,,,,,,,,,,,,5.100174189,-0.035,-0.091666667,1.004764954,-2.992000388,1,,782340,1,2025-06-22_16h54.39.070,ContPsyTracking,2024.2.4,104.7514196,2025-06-22 16h54.43.745144 -0400
0,0,0,0,0,0,0,,,,,,,,,,,,,,,,,5.112397432,-0.03,-0.088333333,0.908240919,-2.830044923,1,,782340,1,2025-06-22_16h54.39.070,ContPsyTracking,2024.2.4,104.7514196,2025-06-22 16h54.43.745144 -0400
0,0,0,0,0,0,0,,,,,,,,,,,,,,,,,5.125361204,-0.02,-0.081666667,0.18996873,-2.967823501,1,,782340,1,2025-06-22_16h54.39.070,ContPsyTracking,2024.2.4,104.7514196,2025-06-22 16h54.43.745144 -0400
0,0,0,0,0,0,0,,,,,,,,,,,,,,,,,5.136786938,-0.008333333,-0.073333333,0.221362679,-2.817579092,1,,782340,1,2025-06-22_16h54.39.070,ContPsyTracking,2024.2.4,104.7514196,2025-06-22 16h54.43.745144 -0400
0,0,0,0,0,0,0,,,,,,,,,,,,,,,,,5.147754431,-0.006666667,-0.071666667,0.020356727,-3.105214812,1,,782340,1,2025-06-22_16h54.39.070,ContPsyTracking,2024.2.4,104.7514196,2025-06-22 16h54.43.745144 -0400
0,0,0,0,0,0,0,,,,,,,,,,,,,,,,,5.162702322,-0.006666667,-0.071666667,-0.129872531,-3.019421986,1,,782340,1,2025-06-22_16h54.39.070,ContPsyTracking,2024.2.4,104.7514196,2025-06-22 16h54.43.745144 -0400
0,0,0,0,0,0,0,,,,,,,,,,,,,,,,,5.173663378,-0.006666667,-0.071666667,-0.285536581,-3.296154265,1,,782340,1,2025-06-22_16h54.39.070,ContPsyTracking,2024.2.4,104.7514196,2025-06-22 16h54.43.745144 -0400
0,0,0,0,0,0,0,,,,,,,,,,,,,,,,,5.183638811,-0.006666667,-0.071666667,-0.481649425,-3.343598878,1,,782340,1,2025-06-22_16h54.39.070,ContPsyTracking,2024.2.4,104.7514196,2025-06-22 16h54.43.745144 -0400
0,0,0,0,0,0,0,,,,,,,,,,,,,,,,,5.196604729,-0.006666667,-0.071666667,0.116480459,-3.555326556,1,,782340,1,2025-06-22_16h54.39.070,ContPsyTracking,2024.2.4,104.7514196,2025-06-22 16h54.43.745144 -0400
0,0,0,0,0,0,0,,,,,,,,,,,,,,,,,5.209847689,-0.006666667,-0.071666667,-0.488056429,-3.708756975,1,,782340,1,2025-06-22_16h54.39.070,ContPsyTracking,2024.2.4,104.7514196,2025-06-22 16h54.43.745144 -0400
0,0,0,0,0,0,0,,,,,,,,,,,,,,,,,5.22081089,-0.006666667,-0.071666667,-0.632517797,-3.205151289,1,,782340,1,2025-06-22_16h54.39.070,ContPsyTracking,2024.2.4,104.7514196,2025-06-22 16h54.43.745144 -0400
0,0,0,0,0,0,0,,,,,,,,,,,,,,,,,5.232770443,-0.006666667,-0.071666667,-0.152925432,-3.338430997,1,,782340,1,2025-06-22_16h54.39.070,ContPsyTracking,2024.2.4,104.7514196,2025-06-22 16h54.43.745144 -0400
0,0,0,0,0,0,0,,,,,,,,,,,,,,,,,5.244734526,-0.006666667,-0.075,-0.133566904,-3.591732594,1,,782340,1,2025-06-22_16h54.39.070,ContPsyTracking,2024.2.4,104.7514196,2025-06-22 16h54.43.745144 -0400
0,0,0,0,0,0,0,,,,,,,,,,,,,,,,,5.259879351,-0.006666667,-0.083333333,0.103830115,-3.420030058,1,,782340,1,2025-06-22_16h54.39.070,ContPsyTracking,2024.2.4,104.7514196,2025-06-22 16h54.43.745144 -0400
0,0,0,0,0,0,0,,,,,,,,,,,,,,,,,5.269842148,-0.006666667,-0.096666667,0.34558869,-3.426260012,1,,782340,1,2025-06-22_16h54.39.070,ContPsyTracking,2024.2.4,104.7514196,2025-06-22 16h54.43.745144 -0400
0,0,0,0,0,0,0,,,,,,,,,,,,,,,,,5.280809879,-0.006666667,-0.103333333,0.238749188,-3.142710411,1,,782340,1,2025-06-22_16h54.39.070,ContPsyTracking,2024.2.4,104.7514196,2025-06-22 16h54.43.745144 -0400
0,0,0,0,0,0,0,,,,,,,,,,,,,,,,,5.293786764,-0.006666667,-0.108333333,0.153931422,-3.306362156,1,,782340,1,2025-06-22_16h54.39.070,ContPsyTracking,2024.2.4,104.7514196,2025-06-22 16h54.43.745144 -0400
0,0,0,0,0,0,0,,,,,,,,,,,,,,,,,5.30788064,-0.006666667,-0.11,-0.339234815,-3.845897327,1,,782340,1,2025-06-22_16h54.39.070,ContPsyTracking,2024.2.4,104.7514196,2025-06-22 16h54.43.745144 -0400
0,0,0,0,0,0,0,,,,,,,,,,,,,,,,,5.317851543,-0.006666667,-0.11,-0.339176025,-3.672942456,1,,782340,1,2025-06-22_16h54.39.070,ContPsyTracking,2024.2.4,104.7514196,2025-06-22 16h54.43.745144 -0400
0,0,0,0,0,0,0,,,,,,,,,,,,,,,,,5.329646111,-0.005,-0.111666667,-0.529017224,-3.495133076,1,,782340,1,2025-06-22_16h54.39.070,ContPsyTracking,2024.2.4,104.7514196,2025-06-22 16h54.43.745144 -0400
0,0,0,0,0,0,0,,,,,,,,,,,,,,,,,5.34347415,-0.003333333,-0.111666667,-0.913649496,-3.292374718,1,,782340,1,2025-06-22_16h54.39.070,ContPsyTracking,2024.2.4,104.7514196,2025-06-22 16h54.43.745144 -0400
0,0,0,0,0,0,0,,,,,,,,,,,,,,,,,5.356408834,-0.003333333,-0.111666667,-1.048968522,-2.47610595,1,,782340,1,2025-06-22_16h54.39.070,ContPsyTracking,2024.2.4,104.7514196,2025-06-22 16h54.43.745144 -0400
0,0,0,0,0,0,0,,,,,,,,,,,,,,,,,5.365378857,-0.003333333,-0.111666667,-1.273401158,-2.826505833,1,,782340,1,2025-06-22_16h54.39.070,ContPsyTracking,2024.2.4,104.7514196,2025-06-22 16h54.43.745144 -0400
0,0,0,0,0,0,0,,,,,,,,,,,,,,,,,5.377342463,-0.003333333,-0.115,-1.467389976,-2.99393763,1,,782340,1,2025-06-22_16h54.39.070,ContPsyTracking,2024.2.4,104.7514196,2025-06-22 16h54.43.745144 -0400
0,0,0,0,0,0,0,,,,,,,,,,,,,,,,,5.392288923,-0.005,-0.123333333,-1.405716199,-2.91364999,1,,782340,1,2025-06-22_16h54.39.070,ContPsyTracking,2024.2.4,104.7514196,2025-06-22 16h54.43.745144 -0400
0,0,0,0,0,0,0,,,,,,,,,,,,,,,,,5.403256416,-0.01,-0.136666667,-1.198296222,-3.374549068,1,,782340,1,2025-06-22_16h54.39.070,ContPsyTracking,2024.2.4,104.7514196,2025-06-22 16h54.43.745144 -0400
0,0,0,0,0,0,0,,,,,,,,,,,,,,,,,5.414222717,-0.013333333,-0.145,-1.192257183,-3.7576656,1,,782340,1,2025-06-22_16h54.39.070,ContPsyTracking,2024.2.4,104.7514196,2025-06-22 16h54.43.745144 -0400
0,0,0,0,0,0,0,,,,,,,,,,,,,,,,,5.428173065,-0.013333333,-0.15,-0.875699852,-3.821581875,1,,782340,1,2025-06-22_16h54.39.070,ContPsyTracking,2024.2.4,104.7514196,2025-06-22 16h54.43.745144 -0400
0,0,0,0,0,0,0,,,,,,,,,,,,,,,,,5.440128088,-0.013333333,-0.151666667,-0.873281016,-4.043248854,1,,782340,1,2025-06-22_16h54.39.070,ContPsyTracking,2024.2.4,104.7514196,2025-06-22 16h54.43.745144 -0400
0,0,0,0,0,0,0,,,,,,,,,,,,,,,,,5.451091766,-0.013333333,-0.153333333,-0.975605983,-4.601991165,1,,782340,1,2025-06-22_16h54.39.070,ContPsyTracking,2024.2.4,104.7514196,2025-06-22 16h54.43.745144 -0400
0,0,0,0,0,0,0,,,,,,,,,,,,,,,,,5.462079525,-0.015,-0.155,-0.870851912,-4.864961336,1,,782340,1,2025-06-22_16h54.39.070,ContPsyTracking,2024.2.4,104.7514196,2025-06-22 16h54.43.745144 -0400
0,0,0,0,0,0,0,,,,,,,,,,,,,,,,,5.477807999,-0.016666667,-0.16,-0.625819717,-4.281286916,1,,782340,1,2025-06-22_16h54.39.070,ContPsyTracking,2024.2.4,104.7514196,2025-06-22 16h54.43.745144 -0400
0,0,0,0,0,0,0,,,,,,,,,,,,,,,,,5.487766981,-0.015,-0.17,-1.241038286,-3.790805031,1,,782340,1,2025-06-22_16h54.39.070,ContPsyTracking,2024.2.4,104.7514196,2025-06-22 16h54.43.745144 -0400
0,0,0,0,0,0,0,,,,,,,,,,,,,,,,,5.498741865,-0.011666667,-0.176666667,-1.435717425,-3.466682593,1,,782340,1,2025-06-22_16h54.39.070,ContPsyTracking,2024.2.4,104.7514196,2025-06-22 16h54.43.745144 -0400
0,0,0,0,0,0,0,,,,,,,,,,,,,,,,,5.510695219,-0.006666667,-0.181666667,-1.283234488,-3.288716873,1,,782340,1,2025-06-22_16h54.39.070,ContPsyTracking,2024.2.4,104.7514196,2025-06-22 16h54.43.745144 -0400
0,0,0,0,0,0,0,,,,,,,,,,,,,,,,,5.518664598,-0.003333333,-0.185,-1.202724164,-3.398152328,1,,782340,1,2025-06-22_16h54.39.070,ContPsyTracking,2024.2.4,104.7514196,2025-06-22 16h54.43.745144 -0400
0,0,0,0,0,0,0,,,,,,,,,,,,,,,,,5.528630495,-0.001666667,-0.185,-0.898262594,-3.790885771,1,,782340,1,2025-06-22_16h54.39.070,ContPsyTracking,2024.2.4,104.7514196,2025-06-22 16h54.43.745144 -0400
0,0,0,0,0,0,0,,,,,,,,,,,,,,,,,5.537603855,0,-0.185,-1.180370086,-3.687850104,1,,782340,1,2025-06-22_16h54.39.070,ContPsyTracking,2024.2.4,104.7514196,2025-06-22 16h54.43.745144 -0400
0,0,0,0,0,0,0,,,,,,,,,,,,,,,,,5.547567368,0,-0.185,-1.431471542,-2.982439297,1,,782340,1,2025-06-22_16h54.39.070,ContPsyTracking,2024.2.4,104.7514196,2025-06-22 16h54.43.745144 -0400
0,0,0,0,0,0,0,,,,,,,,,,,,,,,,,5.55454421,0,-0.185,-1.044307664,-2.952273352,1,,782340,1,2025-06-22_16h54.39.070,ContPsyTracking,2024.2.4,104.7514196,2025-06-22 16h54.43.745144 -0400
0,0,0,0,0,0,0,,,,,,,,,,,,,,,,,5.565507412,0,-0.185,-1.315663797,-3.265416851,1,,782340,1,2025-06-22_16h54.39.070,ContPsyTracking,2024.2.4,104.7514196,2025-06-22 16h54.43.745144 -0400
0,0,0,0,0,0,0,,,,,,,,,,,,,,,,,5.577471495,0,-0.185,-1.35698177,-3.386392265,1,,782340,1,2025-06-22_16h54.39.070,ContPsyTracking,2024.2.4,104.7514196,2025-06-22 16h54.43.745144 -0400
0,0,0,0,0,0,0,,,,,,,,,,,,,,,,,5.585440159,-0.003333333,-0.185,-0.880763163,-3.52041194,1,,782340,1,2025-06-22_16h54.39.070,ContPsyTracking,2024.2.4,104.7514196,2025-06-22 16h54.43.745144 -0400
0,0,0,0,0,0,0,,,,,,,,,,,,,,,,,5.596423864,-0.005,-0.185,-0.845817486,-3.215518389,1,,782340,1,2025-06-22_16h54.39.070,ContPsyTracking,2024.2.4,104.7514196,2025-06-22 16h54.43.745144 -0400
0,0,0,0,0,0,0,,,,,,,,,,,,,,,,,5.609441757,-0.01,-0.186666667,-1.200527509,-2.939040684,1,,782340,1,2025-06-22_16h54.39.070,ContPsyTracking,2024.2.4,104.7514196,2025-06-22 16h54.43.745144 -0400
0,0,0,0,0,0,0,,,,,,,,,,,,,,,,,5.621815681,-0.013333333,-0.188333333,-1.384353197,-3.387608314,1,,782340,1,2025-06-22_16h54.39.070,ContPsyTracking,2024.2.4,104.7514196,2025-06-22 16h54.43.745144 -0400
0,0,0,0,0,0,0,,,,,,,,,,,,,,,,,5.631780863,-0.018333333,-0.19,-1.328772701,-3.708104218,1,,782340,1,2025-06-22_16h54.39.070,ContPsyTracking,2024.2.4,104.7514196,2025-06-22 16h54.43.745144 -0400
0,0,0,0,0,0,0,,,,,,,,,,,,,,,,,5.645734072,-0.021666667,-0.19,-1.247729562,-3.609200607,1,,782340,1,2025-06-22_16h54.39.070,ContPsyTracking,2024.2.4,104.7514196,2025-06-22 16h54.43.745144 -0400
0,0,0,0,0,0,0,,,,,,,,,,,,,,,,,5.658693314,-0.025,-0.193333333,-1.676410944,-4.050827808,1,,782340,1,2025-06-22_16h54.39.070,ContPsyTracking,2024.2.4,104.7514196,2025-06-22 16h54.43.745144 -0400
0,0,0,0,0,0,0,,,,,,,,,,,,,,,,,5.668657303,-0.03,-0.198333333,-2.38495236,-3.758118171,1,,782340,1,2025-06-22_16h54.39.070,ContPsyTracking,2024.2.4,104.7514196,2025-06-22 16h54.43.745144 -0400
0,0,0,0,0,0,0,,,,,,,,,,,,,,,,,5.680622339,-0.03,-0.201666667,-2.878271178,-3.923610766,1,,782340,1,2025-06-22_16h54.39.070,ContPsyTracking,2024.2.4,104.7514196,2025-06-22 16h54.43.745144 -0400
0,0,0,0,0,0,0,,,,,,,,,,,,,,,,,5.693574429,-0.035,-0.208333333,-2.901399143,-3.885377868,1,,782340,1,2025-06-22_16h54.39.070,ContPsyTracking,2024.2.4,104.7514196,2025-06-22 16h54.43.745144 -0400
0,0,0,0,0,0,0,,,,,,,,,,,,,,,,,5.705301762,-0.041666667,-0.211666667,-2.801457605,-3.700365837,1,,782340,1,2025-06-22_16h54.39.070,ContPsyTracking,2024.2.4,104.7514196,2025-06-22 16h54.43.745144 -0400
0,0,0,0,0,0,0,,,,,,,,,,,,,,,,,5.717261314,-0.046666667,-0.213333333,-3.118074244,-3.287121664,1,,782340,1,2025-06-22_16h54.39.070,ContPsyTracking,2024.2.4,104.7514196,2025-06-22 16h54.43.745144 -0400
0,0,0,0,0,0,0,,,,,,,,,,,,,,,,,5.729225159,-0.048333333,-0.213333333,-3.009538601,-3.272386693,1,,782340,1,2025-06-22_16h54.39.070,ContPsyTracking,2024.2.4,104.7514196,2025-06-22 16h54.43.745144 -0400
0,0,0,0,0,0,0,,,,,,,,,,,,,,,,,5.73719573,-0.05,-0.213333333,-2.854848029,-3.317558174,1,,782340,1,2025-06-22_16h54.39.070,ContPsyTracking,2024.2.4,104.7514196,2025-06-22 16h54.43.745144 -0400
0,0,0,0,0,0,0,,,,,,,,,,,,,,,,,5.747167587,-0.05,-0.213333333,-2.577497665,-3.443819604,1,,782340,1,2025-06-22_16h54.39.070,ContPsyTracking,2024.2.4,104.7514196,2025-06-22 16h54.43.745144 -0400
0,0,0,0,0,0,0,,,,,,,,,,,,,,,,,5.761115074,-0.05,-0.213333333,-2.816790848,-3.582525033,1,,782340,1,2025-06-22_16h54.39.070,ContPsyTracking,2024.2.4,104.7514196,2025-06-22 16h54.43.745144 -0400
0,0,0,0,0,0,0,,,,,,,,,,,,,,,,,5.773075104,-0.05,-0.213333333,-2.881225036,-3.354359929,1,,782340,1,2025-06-22_16h54.39.070,ContPsyTracking,2024.2.4,104.7514196,2025-06-22 16h54.43.745144 -0400
0,0,0,0,0,0,0,,,,,,,,,,,,,,,,,5.784042358,-0.051666667,-0.21,-2.241556348,-3.224243749,1,,782340,1,2025-06-22_16h54.39.070,ContPsyTracking,2024.2.4,104.7514196,2025-06-22 16h54.43.745144 -0400
0,0,0,0,0,0,0,,,,,,,,,,,,,,,,,5.795998335,-0.053333333,-0.203333333,-2.132021171,-3.268509606,1,,782340,1,2025-06-22_16h54.39.070,ContPsyTracking,2024.2.4,104.7514196,2025-06-22 16h54.43.745144 -0400
0,0,0,0,0,0,0,,,,,,,,,,,,,,,,,5.810949326,-0.056666667,-0.195,-2.281517246,-3.362133943,1,,782340,1,2025-06-22_16h54.39.070,ContPsyTracking,2024.2.4,104.7514196,2025-06-22 16h54.43.745144 -0400
0,0,0,0,0,0,0,,,,,,,,,,,,,,,,,5.819918871,-0.06,-0.188333333,-2.475963592,-3.336097026,1,,782340,1,2025-06-22_16h54.39.070,ContPsyTracking,2024.2.4,104.7514196,2025-06-22 16h54.43.745144 -0400
0,0,0,0,0,0,0,,,,,,,,,,,,,,,,,5.831882,-0.06,-0.186666667,-2.543996101,-3.296907143,1,,782340,1,2025-06-22_16h54.39.070,ContPsyTracking,2024.2.4,104.7514196,2025-06-22 16h54.43.745144 -0400
0,0,0,0,0,0,0,,,,,,,,,,,,,,,,,5.841846466,-0.06,-0.186666667,-2.977719957,-3.360206418,1,,782340,1,2025-06-22_16h54.39.070,ContPsyTracking,2024.2.4,104.7514196,2025-06-22 16h54.43.745144 -0400
0,0,0,0,0,0,0,,,,,,,,,,,,,,,,,5.851811886,-0.06,-0.186666667,-2.806497386,-3.184725249,1,,782340,1,2025-06-22_16h54.39.070,ContPsyTracking,2024.2.4,104.7514196,2025-06-22 16h54.43.745144 -0400
0,0,0,0,0,0,0,,,,,,,,,,,,,,,,,5.861783028,-0.06,-0.186666667,-2.811619306,-3.304444542,1,,782340,1,2025-06-22_16h54.39.070,ContPsyTracking,2024.2.4,104.7514196,2025-06-22 16h54.43.745144 -0400
0,0,0,0,0,0,0,,,,,,,,,,,,,,,,,5.86975193,-0.06,-0.186666667,-2.926037523,-3.349196281,1,,782340,1,2025-06-22_16h54.39.070,ContPsyTracking,2024.2.4,104.7514196,2025-06-22 16h54.43.745144 -0400
0,0,0,0,0,0,0,,,,,,,,,,,,,,,,,5.879718304,-0.06,-0.186666667,-2.469395122,-3.795687507,1,,782340,1,2025-06-22_16h54.39.070,ContPsyTracking,2024.2.4,104.7514196,2025-06-22 16h54.43.745144 -0400
0,0,0,0,0,0,0,,,,,,,,,,,,,,,,,5.886695147,-0.06,-0.186666667,-2.491518138,-3.441591497,1,,782340,1,2025-06-22_16h54.39.070,ContPsyTracking,2024.2.4,104.7514196,2025-06-22 16h54.43.745144 -0400
0,0,0,0,0,0,0,,,,,,,,,,,,,,,,,5.898661137,-0.063333333,-0.186666667,-2.48005138,-2.969197741,1,,782340,1,2025-06-22_16h54.39.070,ContPsyTracking,2024.2.4,104.7514196,2025-06-22 16h54.43.745144 -0400
0,0,0,0,0,0,0,,,,,,,,,,,,,,,,,5.910614967,-0.066666667,-0.183333333,-2.555956797,-3.126626371,1,,782340,1,2025-06-22_16h54.39.070,ContPsyTracking,2024.2.4,104.7514196,2025-06-22 16h54.43.745144 -0400
0,0,0,0,0,0,0,,,,,,,,,,,,,,,,,5.916601181,-0.073333333,-0.183333333,-2.460650364,-2.733085467,1,,782340,1,2025-06-22_16h54.39.070,ContPsyTracking,2024.2.4,104.7514196,2025-06-22 16h54.43.745144 -0400
0,0,0,0,0,0,0,,,,,,,,,,,,,,,,,5.928559065,-0.076666667,-0.183333333,-2.637331489,-2.429190605,1,,782340,1,2025-06-22_16h54.39.070,ContPsyTracking,2024.2.4,104.7514196,2025-06-22 16h54.43.745144 -0400
0,0,0,0,0,0,0,,,,,,,,,,,,,,,,,5.936530828,-0.083333333,-0.185,-3.203552075,-2.95941949,1,,782340,1,2025-06-22_16h54.39.070,ContPsyTracking,2024.2.4,104.7514196,2025-06-22 16h54.43.745144 -0400
0,0,0,0,0,0,0,,,,,,,,,,,,,,,,,5.946499825,-0.086666667,-0.185,-3.595512898,-2.816123012,1,,782340,1,2025-06-22_16h54.39.070,ContPsyTracking,2024.2.4,104.7514196,2025-06-22 16h54.43.745144 -0400
0,0,0,0,0,0,0,,,,,,,,,,,,,,,,,5.954468727,-0.091666667,-0.185,-3.808638959,-2.205195775,1,,782340,1,2025-06-22_16h54.39.070,ContPsyTracking,2024.2.4,104.7514196,2025-06-22 16h54.43.745144 -0400
0,0,0,0,0,0,0,,,,,,,,,,,,,,,,,5.965232134,-0.093333333,-0.185,-3.760573471,-2.106763779,1,,782340,1,2025-06-22_16h54.39.070,ContPsyTracking,2024.2.4,104.7514196,2025-06-22 16h54.43.745144 -0400
0,0,0,0,0,0,0,,,,,,,,,,,,,,,,,5.97420001,-0.093333333,-0.185,-3.817906798,-2.29929588,1,,782340,1,2025-06-22_16h54.39.070,ContPsyTracking,2024.2.4,104.7514196,2025-06-22 16h54.43.745144 -0400
0,0,0,0,0,0,0,,,,,,,,,,,,,,,,,5.983168364,-0.093333333,-0.185,-3.45237146,-2.295154129,1,,782340,1,2025-06-22_16h54.39.070,ContPsyTracking,2024.2.4,104.7514196,2025-06-22 16h54.43.745144 -0400
0,0,0,0,0,0,0,,,,,,,,,,,,,,,,,5.992138386,-0.093333333,-0.185,-4.1852989,-2.55698503,1,,782340,1,2025-06-22_16h54.39.070,ContPsyTracking,2024.2.4,104.7514196,2025-06-22 16h54.43.745144 -0400
0,0,0,0,0,0,0,,,,,,,,,,,,,,,,,6.001112938,-0.095,-0.185,-3.84885653,-2.6383875,1,,782340,1,2025-06-22_16h54.39.070,ContPsyTracking,2024.2.4,104.7514196,2025-06-22 16h54.43.745144 -0400
0,0,0,0,0,0,0,,,,,,,,,,,,,,,,,6.010082483,-0.098333333,-0.183333333,-4.065822573,-2.850149993,1,,782340,1,2025-06-22_16h54.39.070,ContPsyTracking,2024.2.4,104.7514196,2025-06-22 16h54.43.745144 -0400
0,0,0,0,0,0,0,,,,,,,,,,,,,,,,,6.022037983,-0.103333333,-0.181666667,-4.285620593,-2.972779488,1,,782340,1,2025-06-22_16h54.39.070,ContPsyTracking,2024.2.4,104.7514196,2025-06-22 16h54.43.745144 -0400
0,0,0,0,0,0,0,,,,,,,,,,,,,,,,,6.031008244,-0.115,-0.178333333,-4.025474182,-2.331640801,1,,782340,1,2025-06-22_16h54.39.070,ContPsyTracking,2024.2.4,104.7514196,2025-06-22 16h54.43.745144 -0400
0,0,0,0,0,0,0,,,,,,,,,,,,,,,,,6.039978266,-0.125,-0.176666667,-4.155664489,-2.033362539,1,,782340,1,2025-06-22_16h54.39.070,ContPsyTracking,2024.2.4,104.7514196,2025-06-22 16h54.43.745144 -0400
0,0,0,0,0,0,0,,,,,,,,,,,,,,,,,6.049948692,-0.133333333,-0.175,-4.265805827,-1.904957218,1,,782340,1,2025-06-22_16h54.39.070,ContPsyTracking,2024.2.4,104.7514196,2025-06-22 16h54.43.745144 -0400
0,0,0,0,0,0,0,,,,,,,,,,,,,,,,,6.061909199,-0.138333333,-0.173333333,-4.100257776,-1.831482346,1,,782340,1,2025-06-22_16h54.39.070,ContPsyTracking,2024.2.4,104.7514196,2025-06-22 16h54.43.745144 -0400
0,0,0,0,0,0,0,,,,,,,,,,,,,,,,,6.06987834,-0.141666667,-0.173333333,-3.3395949,-1.586619904,1,,782340,1,2025-06-22_16h54.39.070,ContPsyTracking,2024.2.4,104.7514196,2025-06-22 16h54.43.745144 -0400
0,0,0,0,0,0,0,,,,,,,,,,,,,,,,,6.079845667,-0.143333333,-0.171666667,-3.638334619,-2.090801196,1,,782340,1,2025-06-22_16h54.39.070,ContPsyTracking,2024.2.4,104.7514196,2025-06-22 16h54.43.745144 -0400
0,0,0,0,0,0,0,,,,,,,,,,,,,,,,,6.086821079,-0.145,-0.17,-3.616286134,-2.081576791,1,,782340,1,2025-06-22_16h54.39.070,ContPsyTracking,2024.2.4,104.7514196,2025-06-22 16h54.43.745144 -0400
0,0,0,0,0,0,0,,,,,,,,,,,,,,,,,6.097789049,-0.145,-0.17,-3.370476637,-2.072289309,1,,782340,1,2025-06-22_16h54.39.070,ContPsyTracking,2024.2.4,104.7514196,2025-06-22 16h54.43.745144 -0400
0,0,0,0,0,0,0,,,,,,,,,,,,,,,,,6.10675478,-0.146666667,-0.168333333,-3.604960108,-2.459335968,1,,782340,1,2025-06-22_16h54.39.070,ContPsyTracking,2024.2.4,104.7514196,2025-06-22 16h54.43.745144 -0400
0,0,0,0,0,0,0,,,,,,,,,,,,,,,,,6.115729094,-0.146666667,-0.168333333,-3.954430202,-2.87356565,1,,782340,1,2025-06-22_16h54.39.070,ContPsyTracking,2024.2.4,104.7514196,2025-06-22 16h54.43.745144 -0400
0,0,0,0,0,0,0,,,,,,,,,,,,,,,,,6.125692129,-0.148333333,-0.168333333,-4.096811842,-2.239775362,1,,782340,1,2025-06-22_16h54.39.070,ContPsyTracking,2024.2.4,104.7514196,2025-06-22 16h54.43.745144 -0400
0,0,0,0,0,0,0,,,,,,,,,,,,,,,,,6.134662867,-0.148333333,-0.168333333,-4.750608022,-2.338764161,1,,782340,1,2025-06-22_16h54.39.070,ContPsyTracking,2024.2.4,104.7514196,2025-06-22 16h54.43.745144 -0400
0,0,0,0,0,0,0,,,,,,,,,,,,,,,,,6.143631458,-0.148333333,-0.168333333,-4.171374592,-2.768344033,1,,782340,1,2025-06-22_16h54.39.070,ContPsyTracking,2024.2.4,104.7514196,2025-06-22 16h54.43.745144 -0400
0,0,0,0,0,0,0,,,,,,,,,,,,,,,,,6.152601957,-0.148333333,-0.168333333,-4.700860357,-2.454687913,1,,782340,1,2025-06-22_16h54.39.070,ContPsyTracking,2024.2.4,104.7514196,2025-06-22 16h54.43.745144 -0400
0,0,0,0,0,0,0,,,,,,,,,,,,,,,,,6.161346436,-0.148333333,-0.168333333,-5.515041357,-2.61095036,1,,782340,1,2025-06-22_16h54.39.070,ContPsyTracking,2024.2.4,104.7514196,2025-06-22 16h54.43.745144 -0400
0,0,0,0,0,0,0,,,,,,,,,,,,,,,,,6.172307491,-0.148333333,-0.166666667,-5.334041801,-2.467625833,1,,782340,1,2025-06-22_16h54.39.070,ContPsyTracking,2024.2.4,104.7514196,2025-06-22 16h54.43.745144 -0400
0,0,0,0,0,0,0,,,,,,,,,,,,,,,,,6.182281256,-0.148333333,-0.163333333,-5.362274227,-2.493072831,1,,782340,1,2025-06-22_16h54.39.070,ContPsyTracking,2024.2.4,104.7514196,2025-06-22 16h54.43.745144 -0400
0,0,0,0,0,0,0,,,,,,,,,,,,,,,,,6.19224143,-0.15,-0.16,-5.931576745,-2.577511272,1,,782340,1,2025-06-22_16h54.39.070,ContPsyTracking,2024.2.4,104.7514196,2025-06-22 16h54.43.745144 -0400
0,0,0,0,0,0,0,,,,,,,,,,,,,,,,,6.201210737,-0.155,-0.155,-5.623489727,-2.458265127,1,,782340,1,2025-06-22_16h54.39.070,ContPsyTracking,2024.2.4,104.7514196,2025-06-22 16h54.43.745144 -0400
0,0,0,0,0,0,0,,,,,,,,,,,,,,,,,6.210180759,-0.16,-0.15,-5.623130509,-2.684793718,1,,782340,1,2025-06-22_16h54.39.070,ContPsyTracking,2024.2.4,104.7514196,2025-06-22 16h54.43.745144 -0400
0,0,0,0,0,0,0,,,,,,,,,,,,,,,,,6.219151497,-0.165,-0.148333333,-5.393599235,-2.72089619,1,,782340,1,2025-06-22_16h54.39.070,ContPsyTracking,2024.2.4,104.7514196,2025-06-22 16h54.43.745144 -0400
0,0,0,0,0,0,0,,,,,,,,,,,,,,,,,6.229119301,-0.17,-0.146666667,-5.047627376,-3.239474859,1,,782340,1,2025-06-22_16h54.39.070,ContPsyTracking,2024.2.4,104.7514196,2025-06-22 16h54.43.745144 -0400
0,0,0,0,0,0,0,,,,,,,,,,,,,,,,,6.23908782,-0.176666667,-0.145,-4.581245653,-3.241707518,1,,782340,1,2025-06-22_16h54.39.070,ContPsyTracking,2024.2.4,104.7514196,2025-06-22 16h54.43.745144 -0400
0,0,0,0,0,0,0,,,,,,,,,,,,,,,,,6.250052691,-0.183333333,-0.143333333,-4.214729462,-3.212380179,1,,782340,1,2025-06-22_16h54.39.070,ContPsyTracking,2024.2.4,104.7514196,2025-06-22 16h54.43.745144 -0400
0,0,0,0,0,0,0,,,,,,,,,,,,,,,,,6.260016203,-0.193333333,-0.141666667,-4.285984269,-2.977270343,1,,782340,1,2025-06-22_16h54.39.070,ContPsyTracking,2024.2.4,104.7514196,2025-06-22 16h54.43.745144 -0400
0,0,0,0,0,0,0,,,,,,,,,,,,,,,,,6.267991543,-0.203333333,-0.14,-4.288852468,-3.01424682,1,,782340,1,2025-06-22_16h54.39.070,ContPsyTracking,2024.2.4,104.7514196,2025-06-22 16h54.43.745144 -0400
0,0,0,0,0,0,0,,,,,,,,,,,,,,,,,6.276957989,-0.21,-0.138333333,-4.288183021,-3.064549233,1,,782340,1,2025-06-22_16h54.39.070,ContPsyTracking,2024.2.4,104.7514196,2025-06-22 16h54.43.745144 -0400
0,0,0,0,0,0,0,,,,,,,,,,,,,,,,,6.285927773,-0.213333333,-0.138333333,-4.652755185,-3.080372867,1,,782340,1,2025-06-22_16h54.39.070,ContPsyTracking,2024.2.4,104.7514196,2025-06-22 16h54.43.745144 -0400
0,0,0,0,0,0,0,,,,,,,,,,,,,,,,,6.29489851,-0.215,-0.138333333,-4.684802622,-2.542251998,1,,782340,1,2025-06-22_16h54.39.070,ContPsyTracking,2024.2.4,104.7514196,2025-06-22 16h54.43.745144 -0400
0,0,0,0,0,0,0,,,,,,,,,,,,,,,,,6.305865049,-0.215,-0.138333333,-4.430003444,-2.964320148,1,,782340,1,2025-06-22_16h54.39.070,ContPsyTracking,2024.2.4,104.7514196,2025-06-22 16h54.43.745144 -0400
0,0,0,0,0,0,0,,,,,,,,,,,,,,,,,6.316829443,-0.215,-0.133333333,-4.738621141,-2.705376452,1,,782340,1,2025-06-22_16h54.39.070,ContPsyTracking,2024.2.4,104.7514196,2025-06-22 16h54.43.745144 -0400
0,0,0,0,0,0,0,,,,,,,,,,,,,,,,,6.325797319,-0.213333333,-0.13,-4.695123729,-2.574581794,1,,782340,1,2025-06-22_16h54.39.070,ContPsyTracking,2024.2.4,104.7514196,2025-06-22 16h54.43.745144 -0400
0,0,0,0,0,0,0,,,,,,,,,,,,,,,,,6.334768534,-0.213333333,-0.125,-4.73012963,-2.903427664,1,,782340,1,2025-06-22_16h54.39.070,ContPsyTracking,2024.2.4,104.7514196,2025-06-22 16h54.43.745144 -0400
0,0,0,0,0,0,0,,,,,,,,,,,,,,,,,6.342737913,-0.213333333,-0.123333333,-4.630016853,-3.277385775,1,,782340,1,2025-06-22_16h54.39.070,ContPsyTracking,2024.2.4,104.7514196,2025-06-22 16h54.43.745144 -0400
0,0,0,0,0,0,0,,,,,,,,,,,,,,,,,6.35270524,-0.213333333,-0.121666667,-4.46554097,-3.069395011,1,,782340,1,2025-06-22_16h54.39.070,ContPsyTracking,2024.2.4,104.7514196,2025-06-22 16h54.43.745144 -0400
0,0,0,0,0,0,0,,,,,,,,,,,,,,,,,6.364669561,-0.215,-0.12,-4.248095306,-3.314525321,1,,782340,1,2025-06-22_16h54.39.070,ContPsyTracking,2024.2.4,104.7514196,2025-06-22 16h54.43.745144 -0400
0,0,0,0,0,0,0,,,,,,,,,,,,,,,,,6.3736341,-0.218333333,-0.116666667,-4.140242918,-2.815961105,1,,782340,1,2025-06-22_16h54.39.070,ContPsyTracking,2024.2.4,104.7514196,2025-06-22 16h54.43.745144 -0400
0,0,0,0,0,0,0,,,,,,,,,,,,,,,,,6.383602142,-0.221666667,-0.116666667,-4.42203702,-2.429986382,1,,782340,1,2025-06-22_16h54.39.070,ContPsyTracking,2024.2.4,104.7514196,2025-06-22 16h54.43.745144 -0400
0,0,0,0,0,0,0,,,,,,,,,,,,,,,,,6.394568443,-0.223333333,-0.116666667,-4.068294715,-2.721297479,1,,782340,1,2025-06-22_16h54.39.070,ContPsyTracking,2024.2.4,104.7514196,2025-06-22 16h54.43.745144 -0400
0,0,0,0,0,0,0,,,,,,,,,,,,,,,,,6.402538061,-0.228333333,-0.115,-4.082225794,-2.807048632,1,,782340,1,2025-06-22_16h54.39.070,ContPsyTracking,2024.2.4,104.7514196,2025-06-22 16h54.43.745144 -0400
0,0,0,0,0,0,0,,,,,,,,,,,,,,,,,6.413501024,-0.231666667,-0.113333333,-4.238986374,-2.388217976,1,,782340,1,2025-06-22_16h54.39.070,ContPsyTracking,2024.2.4,104.7514196,2025-06-22 16h54.43.745144 -0400
0,0,0,0,0,0,0,,,,,,,,,,,,,,,,,6.427453756,-0.235,-0.113333333,-3.868301442,-2.365908165,1,,782340,1,2025-06-22_16h54.39.070,ContPsyTracking,2024.2.4,104.7514196,2025-06-22 16h54.43.745144 -0400
0,0,0,0,0,0,0,,,,,,,,,,,,,,,,,6.438417673,-0.24,-0.111666667,-3.574854999,-2.169018094,1,,782340,1,2025-06-22_16h54.39.070,ContPsyTracking,2024.2.4,104.7514196,2025-06-22 16h54.43.745144 -0400
0,0,0,0,0,0,0,,,,,,,,,,,,,,,,,6.449380636,-0.248333333,-0.11,-3.569927674,-1.977149651,1,,782340,1,2025-06-22_16h54.39.070,ContPsyTracking,2024.2.4,104.7514196,2025-06-22 16h54.43.745144 -0400
0,0,0,0,0,0,0,,,,,,,,,,,,,,,,,6.459357023,-0.251666667,-0.11,-3.344164479,-1.742337472,1,,782340,1,2025-06-22_16h54.39.070,ContPsyTracking,2024.2.4,104.7514196,2025-06-22 16h54.43.745144 -0400
0,0,0,0,0,0,0,,,,,,,,,,,,,,,,,6.467321396,-0.253333333,-0.11,-3.487581595,-1.883840687,1,,782340,1,2025-06-22_16h54.39.070,ContPsyTracking,2024.2.4,104.7514196,2025-06-22 16h54.43.745144 -0400
0,0,0,0,0,0,0,,,,,,,,,,,,,,,,,6.476290941,-0.253333333,-0.11,-3.438244547,-2.644905855,1,,782340,1,2025-06-22_16h54.39.070,ContPsyTracking,2024.2.4,104.7514196,2025-06-22 16h54.43.745144 -0400
0,0,0,0,0,0,0,,,,,,,,,,,,,,,,,6.486257553,-0.253333333,-0.11,-3.824195992,-2.744008199,1,,782340,1,2025-06-22_16h54.39.070,ContPsyTracking,2024.2.4,104.7514196,2025-06-22 16h54.43.745144 -0400
0,0,0,0,0,0,0,,,,,,,,,,,,,,,,,6.495229006,-0.253333333,-0.11,-3.190634868,-2.944680149,1,,782340,1,2025-06-22_16h54.39.070,ContPsyTracking,2024.2.4,104.7514196,2025-06-22 16h54.43.745144 -0400
0,0,0,0,0,0,0,,,,,,,,,,,,,,,,,6.506191492,-0.253333333,-0.108333333,-3.301552407,-2.902860723,1,,782340,1,2025-06-22_16h54.39.070,ContPsyTracking,2024.2.4,104.7514196,2025-06-22 16h54.43.745144 -0400
0,0,0,0,0,0,0,,,,,,,,,,,,,,,,,6.51615715,-0.255,-0.108333333,-3.183302102,-3.056885452,1,,782340,1,2025-06-22_16h54.39.070,ContPsyTracking,2024.2.4,104.7514196,2025-06-22 16h54.43.745144 -0400
0,0,0,0,0,0,0,,,,,,,,,,,,,,,,,6.525132656,-0.255,-0.108333333,-3.648007109,-3.325051205,1,,782340,1,2025-06-22_16h54.39.070,ContPsyTracking,2024.2.4,104.7514196,2025-06-22 16h54.43.745144 -0400
0,0,0,0,0,0,0,,,,,,,,,,,,,,,,,6.535094976,-0.255,-0.108333333,-3.654657726,-3.33709938,1,,782340,1,2025-06-22_16h54.39.070,ContPsyTracking,2024.2.4,104.7514196,2025-06-22 16h54.43.745144 -0400
0,0,0,0,0,0,0,,,,,,,,,,,,,,,,,6.546062231,-0.256666667,-0.108333333,-3.709380131,-3.615217147,1,,782340,1,2025-06-22_16h54.39.070,ContPsyTracking,2024.2.4,104.7514196,2025-06-22 16h54.43.745144 -0400
0,0,0,0,0,0,0,,,,,,,,,,,,,,,,,6.554031372,-0.261666667,-0.108333333,-3.276023677,-3.787731296,1,,782340,1,2025-06-22_16h54.39.070,ContPsyTracking,2024.2.4,104.7514196,2025-06-22 16h54.43.745144 -0400
0,0,0,0,0,0,0,,,,,,,,,,,,,,,,,6.564995527,-0.265,-0.111666667,-3.124639206,-3.770394307,1,,782340,1,2025-06-22_16h54.39.070,ContPsyTracking,2024.2.4,104.7514196,2025-06-22 16h54.43.745144 -0400
0,0,0,0,0,0,0,,,,,,,,,,,,,,,,,6.573965073,-0.268333333,-0.116666667,-3.287192855,-3.841281896,1,,782340,1,2025-06-22_16h54.39.070,ContPsyTracking,2024.2.4,104.7514196,2025-06-22 16h54.43.745144 -0400
0,0,0,0,0,0,0,,,,,,,,,,,,,,,,,6.582938671,-0.27,-0.121666667,-3.664518635,-4.201145447,1,,782340,1,2025-06-22_16h54.39.070,ContPsyTracking,2024.2.4,104.7514196,2025-06-22 16h54.43.745144 -0400
0,0,0,0,0,0,0,,,,,,,,,,,,,,,,,6.591904879,-0.271666667,-0.123333333,-3.854687498,-3.801588052,1,,782340,1,2025-06-22_16h54.39.070,ContPsyTracking,2024.2.4,104.7514196,2025-06-22 16h54.43.745144 -0400
0,0,0,0,0,0,0,,,,,,,,,,,,,,,,,6.600878239,-0.271666667,-0.128333333,-4.068266578,-3.578110008,1,,782340,1,2025-06-22_16h54.39.070,ContPsyTracking,2024.2.4,104.7514196,2025-06-22 16h54.43.745144 -0400
0,0,0,0,0,0,0,,,,,,,,,,,,,,,,,6.609845638,-0.271666667,-0.128333333,-4.345359593,-3.129896706,1,,782340,1,2025-06-22_16h54.39.070,ContPsyTracking,2024.2.4,104.7514196,2025-06-22 16h54.43.745144 -0400
0,0,0,0,0,0,0,,,,,,,,,,,,,,,,,6.620809555,-0.271666667,-0.13,-4.564407995,-3.404832769,1,,782340,1,2025-06-22_16h54.39.070,ContPsyTracking,2024.2.4,104.7514196,2025-06-22 16h54.43.745144 -0400
0,0,0,0,0,0,0,,,,,,,,,,,,,,,,,6.630778551,-0.271666667,-0.131666667,-4.319426071,-3.940366972,1,,782340,1,2025-06-22_16h54.39.070,ContPsyTracking,2024.2.4,104.7514196,2025-06-22 16h54.43.745144 -0400
0,0,0,0,0,0,0,,,,,,,,,,,,,,,,,6.63974452,-0.271666667,-0.131666667,-4.763443198,-3.50523836,1,,782340,1,2025-06-22_16h54.39.070,ContPsyTracking,2024.2.4,104.7514196,2025-06-22 16h54.43.745144 -0400
0,0,0,0,0,0,0,,,,,,,,,,,,,,,,,6.649710894,-0.271666667,-0.131666667,-4.699466581,-3.747361883,1,,782340,1,2025-06-22_16h54.39.070,ContPsyTracking,2024.2.4,104.7514196,2025-06-22 16h54.43.745144 -0400
0,0,0,0,0,0,0,,,,,,,,,,,,,,,,,6.660680771,-0.268333333,-0.133333333,-4.651726145,-4.008535235,1,,782340,1,2025-06-22_16h54.39.070,ContPsyTracking,2024.2.4,104.7514196,2025-06-22 16h54.43.745144 -0400
0,0,0,0,0,0,0,,,,,,,,,,,,,,,,,6.667658567,-0.258333333,-0.136666667,-4.685964192,-3.757037653,1,,782340,1,2025-06-22_16h54.39.070,ContPsyTracking,2024.2.4,104.7514196,2025-06-22 16h54.43.745144 -0400
0,0,0,0,0,0,0,,,,,,,,,,,,,,,,,6.676629543,-0.251666667,-0.138333333,-5.394515385,-4.167850574,1,,782340,1,2025-06-22_16h54.39.070,ContPsyTracking,2024.2.4,104.7514196,2025-06-22 16h54.43.745144 -0400
0,0,0,0,0,0,0,,,,,,,,,,,,,,,,,6.686595917,-0.24,-0.14,-5.728662969,-3.852779059,1,,782340,1,2025-06-22_16h54.39.070,ContPsyTracking,2024.2.4,104.7514196,2025-06-22 16h54.43.745144 -0400
0,0,0,0,0,0,0,,,,,,,,,,,,,,,,,6.69755888,-0.226666667,-0.14,-5.759098542,-4.073717113,1,,782340,1,2025-06-22_16h54.39.070,ContPsyTracking,2024.2.4,104.7514196,2025-06-22 16h54.43.745144 -0400
0,0,0,0,0,0,0,,,,,,,,,,,,,,,,,6.707529306,-0.215,-0.14,-5.530121628,-3.827458322,1,,782340,1,2025-06-22_16h54.39.070,ContPsyTracking,2024.2.4,104.7514196,2025-06-22 16h54.43.745144 -0400
0,0,0,0,0,0,0,,,,,,,,,,,,,,,,,6.716500521,-0.211666667,-0.138333333,-5.66315364,-3.883918037,1,,782340,1,2025-06-22_16h54.39.070,ContPsyTracking,2024.2.4,104.7514196,2025-06-22 16h54.43.745144 -0400
0,0,0,0,0,0,0,,,,,,,,,,,,,,,,,6.725466251,-0.211666667,-0.138333333,-5.513595978,-3.673748125,1,,782340,1,2025-06-22_16h54.39.070,ContPsyTracking,2024.2.4,104.7514196,2025-06-22 16h54.43.745144 -0400
0,0,0,0,0,0,0,,,,,,,,,,,,,,,,,6.735432148,-0.211666667,-0.138333333,-5.929890006,-3.666666934,1,,782340,1,2025-06-22_16h54.39.070,ContPsyTracking,2024.2.4,104.7514196,2025-06-22 16h54.43.745144 -0400
0,0,0,0,0,0,0,,,,,,,,,,,,,,,,,6.746399879,-0.211666667,-0.138333333,-5.929890006,-3.417143088,1,,782340,1,2025-06-22_16h54.39.070,ContPsyTracking,2024.2.4,104.7514196,2025-06-22 16h54.43.745144 -0400
0,0,0,0,0,0,0,,,,,,,,,,,,,,,,,6.753377438,-0.211666667,-0.138333333,-5.546258486,-3.218933948,1,,782340,1,2025-06-22_16h54.39.070,ContPsyTracking,2024.2.4,104.7514196,2025-06-22 16h54.43.745144 -0400
0,0,0,0,0,0,0,,,,,,,,,,,,,,,,,6.764340639,-0.211666667,-0.138333333,-5.546258486,-3.834674588,1,,782340,1,2025-06-22_16h54.39.070,ContPsyTracking,2024.2.4,104.7514196,2025-06-22 16h54.43.745144 -0400
0,0,0,0,0,0,0,,,,,,,,,,,,,,,,,6.7733109,-0.211666667,-0.141666667,-5.898661737,-3.843814508,1,,782340,1,2025-06-22_16h54.39.070,ContPsyTracking,2024.2.4,104.7514196,2025-06-22 16h54.43.745144 -0400
0,0,0,0,0,0,0,,,,,,,,,,,,,,,,,6.783273458,-0.21,-0.148333333,-5.898661737,-3.619463027,1,,782340,1,2025-06-22_16h54.39.070,ContPsyTracking,2024.2.4,104.7514196,2025-06-22 16h54.43.745144 -0400
0,0,0,0,0,0,0,,,,,,,,,,,,,,,,,6.795237064,-0.208333333,-0.153333333,-5.898661737,-3.548995023,1,,782340,1,2025-06-22_16h54.39.070,ContPsyTracking,2024.2.4,104.7514196,2025-06-22 16h54.43.745144 -0400
0,0,0,0,0,0,0,,,,,,,,,,,,,,,,,6.80918932,-0.206666667,-0.158333333,-5.87792515,-3.233896559,1,,782340,1,2025-06-22_16h54.39.070,ContPsyTracking,2024.2.4,104.7514196,2025-06-22 16h54.43.745144 -0400
0,0,0,0,0,0,0,,,,,,,,,,,,,,,,,6.819152355,-0.206666667,-0.161666667,-5.68947871,-3.363947511,1,,782340,1,2025-06-22_16h54.39.070,ContPsyTracking,2024.2.4,104.7514196,2025-06-22 16h54.43.745144 -0400
0,0,0,0,0,0,0,,,,,,,,,,,,,,,,,6.828121901,-0.206666667,-0.161666667,-5.874265571,-3.28807654,1,,782340,1,2025-06-22_16h54.39.070,ContPsyTracking,2024.2.4,104.7514196,2025-06-22 16h54.43.745144 -0400
0,0,0,0,0,0,0,,,,,,,,,,,,,,,,,6.839085817,-0.206666667,-0.165,-5.874265571,-3.466209224,1,,782340,1,2025-06-22_16h54.39.070,ContPsyTracking,2024.2.4,104.7514196,2025-06-22 16h54.43.745144 -0400
0,0,0,0,0,0,0,,,,,,,,,,,,,,,,,6.849056482,-0.208333333,-0.165,-5.874265571,-4.055723131,1,,782340,1,2025-06-22_16h54.39.070,ContPsyTracking,2024.2.4,104.7514196,2025-06-22 16h54.43.745144 -0400
0,0,0,0,0,0,0,,,,,,,,,,,,,,,,,6.859019756,-0.21,-0.168333333,-5.874265571,-4.153581963,1,,782340,1,2025-06-22_16h54.39.070,ContPsyTracking,2024.2.4,104.7514196,2025-06-22 16h54.43.745144 -0400
0,0,0,0,0,0,0,,,,,,,,,,,,,,,,,6.868576765,-0.213333333,-0.17,-5.874265571,-4.374744414,1,,782340,1,2025-06-22_16h54.39.070,ContPsyTracking,2024.2.4,104.7514196,2025-06-22 16h54.43.745144 -0400
0,0,0,0,0,0,0,,,,,,,,,,,,,,,,,6.879545212,-0.218333333,-0.173333333,-5.909623693,-4.308620624,1,,782340,1,2025-06-22_16h54.39.070,ContPsyTracking,2024.2.4,104.7514196,2025-06-22 16h54.43.745144 -0400
0,0,0,0,0,0,0,,,,,,,,,,,,,,,,,6.887514114,-0.22,-0.178333333,-5.831983433,-4.315974262,1,,782340,1,2025-06-22_16h54.39.070,ContPsyTracking,2024.2.4,104.7514196,2025-06-22 16h54.43.745144 -0400
0,0,0,0,0,0,0,,,,,,,,,,,,,,,,,6.898482323,-0.221666667,-0.181666667,-5.051356265,-4.33369571,1,,782340,1,2025-06-22_16h54.39.070,ContPsyTracking,2024.2.4,104.7514196,2025-06-22 16h54.43.745144 -0400
0,0,0,0,0,0,0,,,,,,,,,,,,,,,,,6.90944314,-0.226666667,-0.185,-5.216477393,-4.468896164,1,,782340,1,2025-06-22_16h54.39.070,ContPsyTracking,2024.2.4,104.7514196,2025-06-22 16h54.43.745144 -0400
0,0,0,0,0,0,0,,,,,,,,,,,,,,,,,6.917414427,-0.23,-0.19,-4.605645578,-4.426651383,1,,782340,1,2025-06-22_16h54.39.070,ContPsyTracking,2024.2.4,104.7514196,2025-06-22 16h54.43.745144 -0400
0,0,0,0,0,0,0,,,,,,,,,,,,,,,,,6.928385258,-0.235,-0.191666667,-4.603470771,-4.361600738,1,,782340,1,2025-06-22_16h54.39.070,ContPsyTracking,2024.2.4,104.7514196,2025-06-22 16h54.43.745144 -0400
0,0,0,0,0,0,0,,,,,,,,,,,,,,,,,6.936351061,-0.24,-0.193333333,-4.584341021,-4.804038249,1,,782340,1,2025-06-22_16h54.39.070,ContPsyTracking,2024.2.4,104.7514196,2025-06-22 16h54.43.745144 -0400
0,0,0,0,0,0,0,,,,,,,,,,,,,,,,,6.946317911,-0.246666667,-0.193333333,-4.448822033,-5.40070089,1,,782340,1,2025-06-22_16h54.39.070,ContPsyTracking,2024.2.4,104.7514196,2025-06-22 16h54.43.745144 -0400
0,0,0,0,0,0,0,,,,,,,,,,,,,,,,,6.953294992,-0.253333333,-0.193333333,-4.798552108,-5.389935986,1,,782340,1,2025-06-22_16h54.39.070,ContPsyTracking,2024.2.4,104.7514196,2025-06-22 16h54.43.745144 -0400
0,0,0,0,0,0,0,,,,,,,,,,,,,,,,,6.96525383,-0.258333333,-0.193333333,-4.944549848,-5.64658585,1,,782340,1,2025-06-22_16h54.39.070,ContPsyTracking,2024.2.4,104.7514196,2025-06-22 16h54.43.745144 -0400
0,0,0,0,0,0,0,,,,,,,,,,,,,,,,,6.973227739,-0.263333333,-0.193333333,-4.695882378,-5.427135792,1,,782340,1,2025-06-22_16h54.39.070,ContPsyTracking,2024.2.4,104.7514196,2025-06-22 16h54.43.745144 -0400
0,0,0,0,0,0,0,,,,,,,,,,,,,,,,,6.983198404,-0.268333333,-0.193333333,-4.578750042,-5.427135792,1,,782340,1,2025-06-22_16h54.39.070,ContPsyTracking,2024.2.4,104.7514196,2025-06-22 16h54.43.745144 -0400
0,0,0,0,0,0,0,,,,,,,,,,,,,,,,,6.992164373,-0.273333333,-0.193333333,-5.249889837,-5.427135792,1,,782340,1,2025-06-22_16h54.39.070,ContPsyTracking,2024.2.4,104.7514196,2025-06-22 16h54.43.745144 -0400
0,0,0,0,0,0,0,,,,,,,,,,,,,,,,,7.001134634,-0.283333333,-0.193333333,-5.45486663,-5.621112684,1,,782340,1,2025-06-22_16h54.39.070,ContPsyTracking,2024.2.4,104.7514196,2025-06-22 16h54.43.745144 -0400
0,0,0,0,0,0,0,,,,,,,,,,,,,,,,,7.010104895,-0.288333333,-0.191666667,-5.429680733,-5.05185287,1,,782340,1,2025-06-22_16h54.39.070,ContPsyTracking,2024.2.4,104.7514196,2025-06-22 16h54.43.745144 -0400
0,0,0,0,0,0,0,,,,,,,,,,,,,,,,,7.020071983,-0.296666667,-0.19,-5.368760567,-4.609925095,1,,782340,1,2025-06-22_16h54.39.070,ContPsyTracking,2024.2.4,104.7514196,2025-06-22 16h54.43.745144 -0400
0,0,0,0,0,0,0,,,,,,,,,,,,,,,,,7.031038046,-0.303333333,-0.186666667,-5.645930748,-4.984262111,1,,782340,1,2025-06-22_16h54.39.070,ContPsyTracking,2024.2.4,104.7514196,2025-06-22 16h54.43.745144 -0400
0,0,0,0,0,0,0,,,,,,,,,,,,,,,,,7.04000473,-0.306666667,-0.183333333,-5.238511358,-4.865029266,1,,782340,1,2025-06-22_16h54.39.070,ContPsyTracking,2024.2.4,104.7514196,2025-06-22 16h54.43.745144 -0400
0,0,0,0,0,0,0,,,,,,,,,,,,,,,,,7.049975157,-0.308333333,-0.183333333,-5.072722109,-4.434852996,1,,782340,1,2025-06-22_16h54.39.070,ContPsyTracking,2024.2.4,104.7514196,2025-06-22 16h54.43.745144 -0400
0,0,0,0,0,0,0,,,,,,,,,,,,,,,,,7.058948755,-0.308333333,-0.178333333,-5.051483309,-4.853037989,1,,782340,1,2025-06-22_16h54.39.070,ContPsyTracking,2024.2.4,104.7514196,2025-06-22 16h54.43.745144 -0400
0,0,0,0,0,0,0,,,,,,,,,,,,,,,,,7.067915201,-0.308333333,-0.175,-5.484172209,-4.797080545,1,,782340,1,2025-06-22_16h54.39.070,ContPsyTracking,2024.2.4,104.7514196,2025-06-22 16h54.43.745144 -0400
0,0,0,0,0,0,0,,,,,,,,,,,,,,,,,7.076881647,-0.31,-0.173333333,-5.543614389,-4.663148956,1,,782340,1,2025-06-22_16h54.39.070,ContPsyTracking,2024.2.4,104.7514196,2025-06-22 16h54.43.745144 -0400
0,0,0,0,0,0,0,,,,,,,,,,,,,,,,,7.085855484,-0.31,-0.171666667,-5.803498718,-4.526976168,1,,782340,1,2025-06-22_16h54.39.070,ContPsyTracking,2024.2.4,104.7514196,2025-06-22 16h54.43.745144 -0400
0,0,0,0,0,0,0,,,,,,,,,,,,,,,,,7.094821453,-0.31,-0.171666667,-5.812992506,-5.0167753,1,,782340,1,2025-06-22_16h54.39.070,ContPsyTracking,2024.2.4,104.7514196,2025-06-22 16h54.43.745144 -0400
0,0,0,0,0,0,0,,,,,,,,,,,,,,,,,7.105784178,-0.31,-0.171666667,-5.671916083,-4.603126236,1,,782340,1,2025-06-22_16h54.39.070,ContPsyTracking,2024.2.4,104.7514196,2025-06-22 16h54.43.745144 -0400
0,0,0,0,0,0,0,,,,,,,,,,,,,,,,,7.11575079,-0.31,-0.171666667,-5.427702071,-5.067402144,1,,782340,1,2025-06-22_16h54.39.070,ContPsyTracking,2024.2.4,104.7514196,2025-06-22 16h54.43.745144 -0400
0,0,0,0,0,0,0,,,,,,,,,,,,,,,,,7.125719786,-0.31,-0.171666667,-5.198663478,-4.66486695,1,,782340,1,2025-06-22_16h54.39.070,ContPsyTracking,2024.2.4,104.7514196,2025-06-22 16h54.43.745144 -0400
0,0,0,0,0,0,0,,,,,,,,,,,,,,,,,7.134687901,-0.31,-0.176666667,-5.294487591,-4.346518636,1,,782340,1,2025-06-22_16h54.39.070,ContPsyTracking,2024.2.4,104.7514196,2025-06-22 16h54.43.745144 -0400
0,0,0,0,0,0,0,,,,,,,,,,,,,,,,,7.146646738,-0.308333333,-0.181666667,-5.157690596,-4.309529689,1,,782340,1,2025-06-22_16h54.39.070,ContPsyTracking,2024.2.4,104.7514196,2025-06-22 16h54.43.745144 -0400
0,0,0,0,0,0,0,,,,,,,,,,,,,,,,,7.153623819,-0.305,-0.193333333,-5.48263177,-4.511038723,1,,782340,1,2025-06-22_16h54.39.070,ContPsyTracking,2024.2.4,104.7514196,2025-06-22 16h54.43.745144 -0400
0,0,0,0,0,0,0,,,,,,,,,,,,,,,,,7.164587259,-0.3,-0.198333333,-5.592758628,-4.436913444,1,,782340,1,2025-06-22_16h54.39.070,ContPsyTracking,2024.2.4,104.7514196,2025-06-22 16h54.43.745144 -0400
0,0,0,0,0,0,0,,,,,,,,,,,,,,,,,7.173557281,-0.293333333,-0.206666667,-5.875710046,-4.125316669,1,,782340,1,2025-06-22_16h54.39.070,ContPsyTracking,2024.2.4,104.7514196,2025-06-22 16h54.43.745144 -0400
0,0,0,0,0,0,0,,,,,,,,,,,,,,,,,7.182531595,-0.286666667,-0.21,-5.875710046,-4.320723726,1,,782340,1,2025-06-22_16h54.39.070,ContPsyTracking,2024.2.4,104.7514196,2025-06-22 16h54.43.745144 -0400
0,0,0,0,0,0,0,,,,,,,,,,,,,,,,,7.19250536,-0.281666667,-0.215,-5.794766535,-4.227391147,1,,782340,1,2025-06-22_16h54.39.070,ContPsyTracking,2024.2.4,104.7514196,2025-06-22 16h54.43.745144 -0400
0,0,0,0,0,0,0,,,,,,,,,,,,,,,,,7.201468468,-0.276666667,-0.215,-5.478794717,-3.887308534,1,,782340,1,2025-06-22_16h54.39.070,ContPsyTracking,2024.2.4,104.7514196,2025-06-22 16h54.43.745144 -0400
0,0,0,0,0,0,0,,,,,,,,,,,,,,,,,7.212432146,-0.275,-0.216666667,-5.467216592,-3.901800497,1,,782340,1,2025-06-22_16h54.39.070,ContPsyTracking,2024.2.4,104.7514196,2025-06-22 16h54.43.745144 -0400
0,0,0,0,0,0,0,,,,,,,,,,,,,,,,,7.220401049,-0.275,-0.216666667,-5.231929811,-4.045866346,1,,782340,1,2025-06-22_16h54.39.070,ContPsyTracking,2024.2.4,104.7514196,2025-06-22 16h54.43.745144 -0400
0,0,0,0,0,0,0,,,,,,,,,,,,,,,,,7.231369019,-0.273333333,-0.216666667,-5.324619604,-4.206228349,1,,782340,1,2025-06-22_16h54.39.070,ContPsyTracking,2024.2.4,104.7514196,2025-06-22 16h54.43.745144 -0400
0,0,0,0,0,0,0,,,,,,,,,,,,,,,,,7.243328333,-0.273333333,-0.221666667,-4.897101301,-4.26579455,1,,782340,1,2025-06-22_16h54.39.070,ContPsyTracking,2024.2.4,104.7514196,2025-06-22 16h54.43.745144 -0400
0,0,0,0,0,0,0,,,,,,,,,,,,,,,,,7.250305176,-0.271666667,-0.228333333,-4.6914787,-4.007587571,1,,782340,1,2025-06-22_16h54.39.070,ContPsyTracking,2024.2.4,104.7514196,2025-06-22 16h54.43.745144 -0400
0,0,0,0,0,0,0,,,,,,,,,,,,,,,,,7.262260675,-0.271666667,-0.231666667,-4.392993913,-4.115638013,1,,782340,1,2025-06-22_16h54.39.070,ContPsyTracking,2024.2.4,104.7514196,2025-06-22 16h54.43.745144 -0400
0,0,0,0,0,0,0,,,,,,,,,,,,,,,,,7.270234108,-0.271666667,-0.238333333,-4.336962325,-4.189612123,1,,782340,1,2025-06-22_16h54.39.070,ContPsyTracking,2024.2.4,104.7514196,2025-06-22 16h54.43.745144 -0400
0,0,0,0,0,0,0,,,,,,,,,,,,,,,,,7.279209375,-0.271666667,-0.243333333,-4.429305796,-4.042210213,1,,782340,1,2025-06-22_16h54.39.070,ContPsyTracking,2024.2.4,104.7514196,2025-06-22 16h54.43.745144 -0400
0,0,0,0,0,0,0,,,,,,,,,,,,,,,,,7.287177324,-0.271666667,-0.246666667,-4.220909052,-3.249116118,1,,782340,1,2025-06-22_16h54.39.070,ContPsyTracking,2024.2.4,104.7514196,2025-06-22 16h54.43.745144 -0400
0,0,0,0,0,0,0,,,,,,,,,,,,,,,,,7.298148155,-0.271666667,-0.246666667,-3.930462891,-3.663954054,1,,782340,1,2025-06-22_16h54.39.070,ContPsyTracking,2024.2.4,104.7514196,2025-06-22 16h54.43.745144 -0400
0,0,0,0,0,0,0,,,,,,,,,,,,,,,,,7.306114197,-0.271666667,-0.248333333,-4.267652201,-3.915159743,1,,782340,1,2025-06-22_16h54.39.070,ContPsyTracking,2024.2.4,104.7514196,2025-06-22 16h54.43.745144 -0400
0,0,0,0,0,0,0,,,,,,,,,,,,,,,,,7.316085339,-0.271666667,-0.25,-4.582134792,-3.833377384,1,,782340,1,2025-06-22_16h54.39.070,ContPsyTracking,2024.2.4,104.7514196,2025-06-22 16h54.43.745144 -0400
0,0,0,0,0,0,0,,,,,,,,,,,,,,,,,7.326057196,-0.273333333,-0.251666667,-4.397373018,-4.214491929,1,,782340,1,2025-06-22_16h54.39.070,ContPsyTracking,2024.2.4,104.7514196,2025-06-22 16h54.43.745144 -0400
0,0,0,0,0,0,0,,,,,,,,,,,,,,,,,7.334020853,-0.275,-0.251666667,-3.769455042,-4.167046939,1,,782340,1,2025-06-22_16h54.39.070,ContPsyTracking,2024.2.4,104.7514196,2025-06-22 16h54.43.745144 -0400
0,0,0,0,0,0,0,,,,,,,,,,,,,,,,,7.34299159,-0.275,-0.251666667,-3.809891945,-4.570956346,1,,782340,1,2025-06-22_16h54.39.070,ContPsyTracking,2024.2.4,104.7514196,2025-06-22 16h54.43.745144 -0400
0,0,0,0,0,0,0,,,,,,,,,,,,,,,,,7.352957726,-0.278333333,-0.251666667,-4.02114835,-4.412687281,1,,782340,1,2025-06-22_16h54.39.070,ContPsyTracking,2024.2.4,104.7514196,2025-06-22 16h54.43.745144 -0400
0,0,0,0,0,0,0,,,,,,,,,,,,,,,,,7.364917517,-0.28,-0.251666667,-3.749922308,-4.199836577,1,,782340,1,2025-06-22_16h54.39.070,ContPsyTracking,2024.2.4,104.7514196,2025-06-22 16h54.43.745144 -0400
0,0,0,0,0,0,0,,,,,,,,,,,,,,,,,7.373538494,-0.283333333,-0.251666667,-3.92881223,-4.4959562,1,,782340,1,2025-06-22_16h54.39.070,ContPsyTracking,2024.2.4,104.7514196,2025-06-22 16h54.43.745144 -0400
0,0,0,0,0,0,0,,,,,,,,,,,,,,,,,7.383505344,-0.288333333,-0.251666667,-4.172273019,-4.740113056,1,,782340,1,2025-06-22_16h54.39.070,ContPsyTracking,2024.2.4,104.7514196,2025-06-22 16h54.43.745144 -0400
0,0,0,0,0,0,0,,,,,,,,,,,,,,,,,7.394471884,-0.293333333,-0.248333333,-4.004735143,-4.331878268,1,,782340,1,2025-06-22_16h54.39.070,ContPsyTracking,2024.2.4,104.7514196,2025-06-22 16h54.43.745144 -0400
0,0,0,0,0,0,0,,,,,,,,,,,,,,,,,7.401440382,-0.3,-0.248333333,-3.998795242,-3.835101408,1,,782340,1,2025-06-22_16h54.39.070,ContPsyTracking,2024.2.4,104.7514196,2025-06-22 16h54.43.745144 -0400
0,0,0,0,0,0,0,,,,,,,,,,,,,,,,,7.413404703,-0.305,-0.245,-3.725399253,-3.919231421,1,,782340,1,2025-06-22_16h54.39.070,ContPsyTracking,2024.2.4,104.7514196,2025-06-22 16h54.43.745144 -0400
0,0,0,0,0,0,0,,,,,,,,,,,,,,,,,7.420377016,-0.308333333,-0.245,-3.665569749,-3.557399365,1,,782340,1,2025-06-22_16h54.39.070,ContPsyTracking,2024.2.4,104.7514196,2025-06-22 16h54.43.745144 -0400
0,0,0,0,0,0,0,,,,,,,,,,,,,,,,,7.431344748,-0.311666667,-0.245,-3.817920747,-3.763117154,1,,782340,1,2025-06-22_16h54.39.070,ContPsyTracking,2024.2.4,104.7514196,2025-06-22 16h54.43.745144 -0400
0,0,0,0,0,0,0,,,,,,,,,,,,,,,,,7.440310717,-0.313333333,-0.245,-3.978683088,-4.258850627,1,,782340,1,2025-06-22_16h54.39.070,ContPsyTracking,2024.2.4,104.7514196,2025-06-22 16h54.43.745144 -0400
0,0,0,0,0,0,0,,,,,,,,,,,,,,,,,7.449280739,-0.315,-0.245,-4.136283061,-3.907594349,1,,782340,1,2025-06-22_16h54.39.070,ContPsyTracking,2024.2.4,104.7514196,2025-06-22 16h54.43.745144 -0400
0,0,0,0,0,0,0,,,,,,,,,,,,,,,,,7.45924902,-0.315,-0.245,-4.186254378,-3.807670665,1,,782340,1,2025-06-22_16h54.39.070,ContPsyTracking,2024.2.4,104.7514196,2025-06-22 16h54.43.745144 -0400
0,0,0,0,0,0,0,,,,,,,,,,,,,,,,,7.467220545,-0.316666667,-0.245,-3.792073262,-3.391785528,1,,782340,1,2025-06-22_16h54.39.070,ContPsyTracking,2024.2.4,104.7514196,2025-06-22 16h54.43.745144 -0400
0,0,0,0,0,0,0,,,,,,,,,,,,,,,,,7.47619772,-0.316666667,-0.245,-3.635568733,-3.580287379,1,,782340,1,2025-06-22_16h54.39.070,ContPsyTracking,2024.2.4,104.7514196,2025-06-22 16h54.43.745144 -0400
0,0,0,0,0,0,0,,,,,,,,,,,,,,,,,7.486158133,-0.318333333,-0.243333333,-3.641744387,-3.545530534,1,,782340,1,2025-06-22_16h54.39.070,ContPsyTracking,2024.2.4,104.7514196,2025-06-22 16h54.43.745144 -0400
0,0,0,0,0,0,0,,,,,,,,,,,,,,,,,7.497120619,-0.32,-0.24,-3.178483475,-3.414767857,1,,782340,1,2025-06-22_16h54.39.070,ContPsyTracking,2024.2.4,104.7514196,2025-06-22 16h54.43.745144 -0400
0,0,0,0,0,0,0,,,,,,,,,,,,,,,,,7.507088423,-0.32,-0.236666667,-3.46230795,-3.627306631,1,,782340,1,2025-06-22_16h54.39.070,ContPsyTracking,2024.2.4,104.7514196,2025-06-22 16h54.43.745144 -0400
0,0,0,0,0,0,0,,,,,,,,,,,,,,,,,7.515067577,-0.323333333,-0.233333333,-2.57376855,-3.967919332,1,,782340,1,2025-06-22_16h54.39.070,ContPsyTracking,2024.2.4,104.7514196,2025-06-22 16h54.43.745144 -0400
0,0,0,0,0,0,0,,,,,,,,,,,,,,,,,7.526025057,-0.323333333,-0.233333333,-3.028392422,-3.368864571,1,,782340,1,2025-06-22_16h54.39.070,ContPsyTracking,2024.2.4,104.7514196,2025-06-22 16h54.43.745144 -0400
0,0,0,0,0,0,0,,,,,,,,,,,,,,,,,7.534993887,-0.325,-0.231666667,-2.543515653,-3.665978622,1,,782340,1,2025-06-22_16h54.39.070,ContPsyTracking,2024.2.4,104.7514196,2025-06-22 16h54.43.745144 -0400
0,0,0,0,0,0,0,,,,,,,,,,,,,,,,,7.542972088,-0.325,-0.231666667,-2.61706372,-3.682407231,1,,782340,1,2025-06-22_16h54.39.070,ContPsyTracking,2024.2.4,104.7514196,2025-06-22 16h54.43.745144 -0400
0,0,0,0,0,0,0,,,,,,,,,,,,,,,,,7.551936626,-0.325,-0.231666667,-2.406648272,-3.798472424,1,,782340,1,2025-06-22_16h54.39.070,ContPsyTracking,2024.2.4,104.7514196,2025-06-22 16h54.43.745144 -0400
0,0,0,0,0,0,0,,,,,,,,,,,,,,,,,7.560907602,-0.326666667,-0.228333333,-2.107203935,-3.990120289,1,,782340,1,2025-06-22_16h54.39.070,ContPsyTracking,2024.2.4,104.7514196,2025-06-22 16h54.43.745144 -0400
0,0,0,0,0,0,0,,,,,,,,,,,,,,,,,7.572484732,-0.326666667,-0.226666667,-1.657396927,-4.190137653,1,,782340,1,2025-06-22_16h54.39.070,ContPsyTracking,2024.2.4,104.7514196,2025-06-22 16h54.43.745144 -0400
0,0,0,0,0,0,0,,,,,,,,,,,,,,,,,7.582453966,-0.326666667,-0.223333333,-1.717624119,-4.227359155,1,,782340,1,2025-06-22_16h54.39.070,ContPsyTracking,2024.2.4,104.7514196,2025-06-22 16h54.43.745144 -0400
0,0,0,0,0,0,0,,,,,,,,,,,,,,,,,7.592423439,-0.326666667,-0.218333333,-1.864739798,-4.324327261,1,,782340,1,2025-06-22_16h54.39.070,ContPsyTracking,2024.2.4,104.7514196,2025-06-22 16h54.43.745144 -0400
0,0,0,0,0,0,0,,,,,,,,,,,,,,,,,7.600398779,-0.326666667,-0.211666667,-2.303088071,-4.512476555,1,,782340,1,2025-06-22_16h54.39.070,ContPsyTracking,2024.2.4,104.7514196,2025-06-22 16h54.43.745144 -0400
0,0,0,0,0,0,0,,,,,,,,,,,,,,,,,7.609360218,-0.326666667,-0.21,-2.474577498,-4.069423692,1,,782340,1,2025-06-22_16h54.39.070,ContPsyTracking,2024.2.4,104.7514196,2025-06-22 16h54.43.745144 -0400
0,0,0,0,0,0,0,,,,,,,,,,,,,,,,,7.619328499,-0.326666667,-0.208333333,-2.036778818,-3.748306328,1,,782340,1,2025-06-22_16h54.39.070,ContPsyTracking,2024.2.4,104.7514196,2025-06-22 16h54.43.745144 -0400
0,0,0,0,0,0,0,,,,,,,,,,,,,,,,,7.628298044,-0.326666667,-0.206666667,-1.889893653,-3.316761049,1,,782340,1,2025-06-22_16h54.39.070,ContPsyTracking,2024.2.4,104.7514196,2025-06-22 16h54.43.745144 -0400
0,0,0,0,0,0,0,,,,,,,,,,,,,,,,,7.638264179,-0.328333333,-0.206666667,-1.95752857,-2.893177306,1,,782340,1,2025-06-22_16h54.39.070,ContPsyTracking,2024.2.4,104.7514196,2025-06-22 16h54.43.745144 -0400
0,0,0,0,0,0,0,,,,,,,,,,,,,,,,,7.649226427,-0.328333333,-0.206666667,-2.161090282,-3.210589589,1,,782340,1,2025-06-22_16h54.39.070,ContPsyTracking,2024.2.4,104.7514196,2025-06-22 16h54.43.745144 -0400
0,0,0,0,0,0,0,,,,,,,,,,,,,,,,,7.659194469,-0.328333333,-0.206666667,-2.63474112,-3.264333627,1,,782340,1,2025-06-22_16h54.39.070,ContPsyTracking,2024.2.4,104.7514196,2025-06-22 16h54.43.745144 -0400
0,0,0,0,0,0,0,,,,,,,,,,,,,,,,,7.667171001,-0.328333333,-0.206666667,-2.78248576,-3.816679533,1,,782340,1,2025-06-22_16h54.39.070,ContPsyTracking,2024.2.4,104.7514196,2025-06-22 16h54.43.745144 -0400
0,0,0,0,0,0,0,,,,,,,,,,,,,,,,,7.677140236,-0.328333333,-0.206666667,-2.799762227,-3.693617173,1,,782340,1,2025-06-22_16h54.39.070,ContPsyTracking,2024.2.4,104.7514196,2025-06-22 16h54.43.745144 -0400
0,0,0,0,0,0,0,,,,,,,,,,,,,,,,,7.690091372,-0.323333333,-0.21,-2.949558923,-3.853631569,1,,782340,1,2025-06-22_16h54.39.070,ContPsyTracking,2024.2.4,104.7514196,2025-06-22 16h54.43.745144 -0400
0,0,0,0,0,0,0,,,,,,,,,,,,,,,,,7.698067665,-0.308333333,-0.215,-2.977794641,-3.744634323,1,,782340,1,2025-06-22_16h54.39.070,ContPsyTracking,2024.2.4,104.7514196,2025-06-22 16h54.43.745144 -0400
0,0,0,0,0,0,0,,,,,,,,,,,,,,,,,7.711024761,-0.295,-0.218333333,-2.952079475,-3.566964612,1,,782340,1,2025-06-22_16h54.39.070,ContPsyTracking,2024.2.4,104.7514196,2025-06-22 16h54.43.745144 -0400
0,0,0,0,0,0,0,,,,,,,,,,,,,,,,,7.723977089,-0.278333333,-0.218333333,-3.216900151,-2.638998009,1,,782340,1,2025-06-22_16h54.39.070,ContPsyTracking,2024.2.4,104.7514196,2025-06-22 16h54.43.745144 -0400
0,0,0,0,0,0,0,,,,,,,,,,,,,,,,,7.734944582,-0.258333333,-0.216666667,-3.015503212,-2.604744281,1,,782340,1,2025-06-22_16h54.39.070,ContPsyTracking,2024.2.4,104.7514196,2025-06-22 16h54.43.745144 -0400
0,0,0,0,0,0,0,,,,,,,,,,,,,,,,,7.7429142,-0.241666667,-0.213333333,-3.067537444,-2.752464913,1,,782340,1,2025-06-22_16h54.39.070,ContPsyTracking,2024.2.4,104.7514196,2025-06-22 16h54.43.745144 -0400
0,0,0,0,0,0,0,,,,,,,,,,,,,,,,,7.752881289,-0.228333333,-0.21,-3.450455216,-2.66647001,1,,782340,1,2025-06-22_16h54.39.070,ContPsyTracking,2024.2.4,104.7514196,2025-06-22 16h54.43.745144 -0400
0,0,0,0,0,0,0,,,,,,,,,,,,,,,,,7.764840603,-0.218333333,-0.21,-3.664635322,-3.090977048,1,,782340,1,2025-06-22_16h54.39.070,ContPsyTracking,2024.2.4,104.7514196,2025-06-22 16h54.43.745144 -0400
0,0,0,0,0,0,0,,,,,,,,,,,,,,,,,7.781783819,-0.215,-0.21,-3.559082636,-3.232210545,1,,782340,1,2025-06-22_16h54.39.070,ContPsyTracking,2024.2.4,104.7514196,2025-06-22 16h54.43.745144 -0400
0,0,0,0,0,0,0,,,,,,,,,,,,,,,,,7.801717043,-0.211666667,-0.21,-3.075277062,-2.465262527,1,,782340,1,2025-06-22_16h54.39.070,ContPsyTracking,2024.2.4,104.7514196,2025-06-22 16h54.43.745144 -0400
0,0,0,0,0,0,0,,,,,,,,,,,,,,,,,7.823643684,-0.181666667,-0.213333333,-3.380182641,-3.027108432,1,,782340,1,2025-06-22_16h54.39.070,ContPsyTracking,2024.2.4,104.7514196,2025-06-22 16h54.43.745144 -0400
0,0,0,0,0,0,0,,,,,,,,,,,,,,,,,7.83361721,-0.165,-0.213333333,-3.140669872,-3.113187319,1,,782340,1,2025-06-22_16h54.39.070,ContPsyTracking,2024.2.4,104.7514196,2025-06-22 16h54.43.745144 -0400
0,0,0,0,0,0,0,,,,,,,,,,,,,,,,,7.851556301,-0.158333333,-0.213333333,-3.265343662,-3.228043134,1,,782340,1,2025-06-22_16h54.39.070,ContPsyTracking,2024.2.4,104.7514196,2025-06-22 16h54.43.745144 -0400
0,0,0,0,0,0,0,,,,,,,,,,,,,,,,,7.861517191,-0.148333333,-0.21,-3.41949991,-3.787798273,1,,782340,1,2025-06-22_16h54.39.070,ContPsyTracking,2024.2.4,104.7514196,2025-06-22 16h54.43.745144 -0400
0,0,0,0,0,0,0,,,,,,,,,,,,,,,,,7.874475956,-0.145,-0.206666667,-3.221872301,-3.830297653,1,,782340,1,2025-06-22_16h54.39.070,ContPsyTracking,2024.2.4,104.7514196,2025-06-22 16h54.43.745144 -0400
0,0,0,0,0,0,0,,,,,,,,,,,,,,,,,7.88544035,-0.143333333,-0.198333333,-3.113572169,-3.663694156,1,,782340,1,2025-06-22_16h54.39.070,ContPsyTracking,2024.2.4,104.7514196,2025-06-22 16h54.43.745144 -0400
0,0,0,0,0,0,0,,,,,,,,,,,,,,,,,7.893413067,-0.14,-0.193333333,-3.200906918,-3.243567723,1,,782340,1,2025-06-22_16h54.39.070,ContPsyTracking,2024.2.4,104.7514196,2025-06-22 16h54.43.745144 -0400
0,0,0,0,0,0,0,,,,,,,,,,,,,,,,,7.904376507,-0.14,-0.19,-3.09329637,-3.470840332,1,,782340,1,2025-06-22_16h54.39.070,ContPsyTracking,2024.2.4,104.7514196,2025-06-22 16h54.43.745144 -0400
0,0,0,0,0,0,0,,,,,,,,,,,,,,,,,7.917330265,-0.135,-0.186666667,-2.78498112,-3.409132608,1,,782340,1,2025-06-22_16h54.39.070,ContPsyTracking,2024.2.4,104.7514196,2025-06-22 16h54.43.745144 -0400
0,0,0,0,0,0,0,,,,,,,,,,,,,,,,,7.928293705,-0.128333333,-0.183333333,-2.885540079,-3.943437803,1,,782340,1,2025-06-22_16h54.39.070,ContPsyTracking,2024.2.4,104.7514196,2025-06-22 16h54.43.745144 -0400
0,0,0,0,0,0,0,,,,,,,,,,,,,,,,,7.940253735,-0.125,-0.181666667,-2.891492308,-3.080978951,1,,782340,1,2025-06-22_16h54.39.070,ContPsyTracking,2024.2.4,104.7514196,2025-06-22 16h54.43.745144 -0400
0,0,0,0,0,0,0,,,,,,,,,,,,,,,,,7.948227882,-0.121666667,-0.181666667,-2.642872471,-3.218666562,1,,782340,1,2025-06-22_16h54.39.070,ContPsyTracking,2024.2.4,104.7514196,2025-06-22 16h54.43.745144 -0400
0,0,0,0,0,0,0,,,,,,,,,,,,,,,,,7.958199501,-0.12,-0.18,-2.883631715,-3.395400081,1,,782340,1,2025-06-22_16h54.39.070,ContPsyTracking,2024.2.4,104.7514196,2025-06-22 16h54.43.745144 -0400
0,0,0,0,0,0,0,,,,,,,,,,,,,,,,,7.967164278,-0.118333333,-0.18,-2.978177059,-3.547730509,1,,782340,1,2025-06-22_16h54.39.070,ContPsyTracking,2024.2.4,104.7514196,2025-06-22 16h54.43.745144 -0400
0,0,0,0,0,0,0,,,,,,,,,,,,,,,,,7.976138115,-0.116666667,-0.178333333,-2.789196204,-4.320024182,1,,782340,1,2025-06-22_16h54.39.070,ContPsyTracking,2024.2.4,104.7514196,2025-06-22 16h54.43.745144 -0400
0,0,0,0,0,0,0,,,,,,,,,,,,,,,,,7.986103058,-0.116666667,-0.176666667,-3.084839653,-4.299403332,1,,782340,1,2025-06-22_16h54.39.070,ContPsyTracking,2024.2.4,104.7514196,2025-06-22 16h54.43.745144 -0400
0,0,0,0,0,0,0,,,,,,,,,,,,,,,,,7.995070934,-0.116666667,-0.173333333,-3.257011721,-3.904953559,1,,782340,1,2025-06-22_16h54.39.070,ContPsyTracking,2024.2.4,104.7514196,2025-06-22 16h54.43.745144 -0400
0,0,0,0,0,0,0,,,,,,,,,,,,,,,,,8.004048824,-0.118333333,-0.171666667,-3.402562251,-3.949329653,1,,782340,1,2025-06-22_16h54.39.070,ContPsyTracking,2024.2.4,104.7514196,2025-06-22 16h54.43.745144 -0400
0,0,0,0,0,0,0,,,,,,,,,,,,,,,,,8.015003204,-0.121666667,-0.17,-3.572723504,-3.947205106,1,,782340,1,2025-06-22_16h54.39.070,ContPsyTracking,2024.2.4,104.7514196,2025-06-22 16h54.43.745144 -0400
0,0,0,0,0,0,0,,,,,,,,,,,,,,,,,8.02497077,-0.126666667,-0.17,-3.829931664,-4.583892425,1,,782340,1,2025-06-22_16h54.39.070,ContPsyTracking,2024.2.4,104.7514196,2025-06-22 16h54.43.745144 -0400
0,0,0,0,0,0,0,,,,,,,,,,,,,,,,,8.034946203,-0.133333333,-0.17,-3.903690423,-4.618357447,1,,782340,1,2025-06-22_16h54.39.070,ContPsyTracking,2024.2.4,104.7514196,2025-06-22 16h54.43.745144 -0400
0,0,0,0,0,0,0,,,,,,,,,,,,,,,,,8.043907642,-0.138333333,-0.171666667,-4.396995569,-5.759543845,1,,782340,1,2025-06-22_16h54.39.070,ContPsyTracking,2024.2.4,104.7514196,2025-06-22 16h54.43.745144 -0400
0,0,0,0,0,0,0,,,,,,,,,,,,,,,,,8.055873156,-0.141666667,-0.176666667,-4.31089215,-5.991539949,1,,782340,1,2025-06-22_16h54.39.070,ContPsyTracking,2024.2.4,104.7514196,2025-06-22 16h54.43.745144 -0400
0,0,0,0,0,0,0,,,,,,,,,,,,,,,,,8.070389509,-0.145,-0.186666667,-3.97991765,-5.987861119,1,,782340,1,2025-06-22_16h54.39.070,ContPsyTracking,2024.2.4,104.7514196,2025-06-22 16h54.43.745144 -0400
0,0,0,0,0,0,0,,,,,,,,,,,,,,,,,8.080361366,-0.15,-0.2,-3.764972398,-5.85585784,1,,782340,1,2025-06-22_16h54.39.070,ContPsyTracking,2024.2.4,104.7514196,2025-06-22 16h54.43.745144 -0400
0,0,0,0,0,0,0,,,,,,,,,,,,,,,,,8.091325521,-0.153333333,-0.205,-4.044596364,-5.485772053,1,,782340,1,2025-06-22_16h54.39.070,ContPsyTracking,2024.2.4,104.7514196,2025-06-22 16h54.43.745144 -0400
0,0,0,0,0,0,0,,,,,,,,,,,,,,,,,8.101290464,-0.155,-0.206666667,-4.302080744,-5.410933759,1,,782340,1,2025-06-22_16h54.39.070,ContPsyTracking,2024.2.4,104.7514196,2025-06-22 16h54.43.745144 -0400
0,0,0,0,0,0,0,,,,,,,,,,,,,,,,,8.110260487,-0.156666667,-0.208333333,-4.385601589,-5.482772789,1,,782340,1,2025-06-22_16h54.39.070,ContPsyTracking,2024.2.4,104.7514196,2025-06-22 16h54.43.745144 -0400
0,0,0,0,0,0,0,,,,,,,,,,,,,,,,,8.119228125,-0.158333333,-0.208333333,-4.266964541,-5.299198634,1,,782340,1,2025-06-22_16h54.39.070,ContPsyTracking,2024.2.4,104.7514196,2025-06-22 16h54.43.745144 -0400
0,0,0,0,0,0,0,,,,,,,,,,,,,,,,,8.128196001,-0.158333333,-0.208333333,-4.896862794,-5.112628408,1,,782340,1,2025-06-22_16h54.39.070,ContPsyTracking,2024.2.4,104.7514196,2025-06-22 16h54.43.745144 -0400
0,0,0,0,0,0,0,,,,,,,,,,,,,,,,,8.138177156,-0.158333333,-0.208333333,-4.89379946,-4.992575332,1,,782340,1,2025-06-22_16h54.39.070,ContPsyTracking,2024.2.4,104.7514196,2025-06-22 16h54.43.745144 -0400
0,0,0,0,0,0,0,,,,,,,,,,,,,,,,,8.147134781,-0.16,-0.205,-4.35980574,-5.039013431,1,,782340,1,2025-06-22_16h54.39.070,ContPsyTracking,2024.2.4,104.7514196,2025-06-22 16h54.43.745144 -0400
0,0,0,0,0,0,0,,,,,,,,,,,,,,,,,8.158101082,-0.163333333,-0.201666667,-4.291581604,-5.161764623,1,,782340,1,2025-06-22_16h54.39.070,ContPsyTracking,2024.2.4,104.7514196,2025-06-22 16h54.43.745144 -0400
0,0,0,0,0,0,0,,,,,,,,,,,,,,,,,8.16807127,-0.168333333,-0.198333333,-4.249264452,-5.32837995,1,,782340,1,2025-06-22_16h54.39.070,ContPsyTracking,2024.2.4,104.7514196,2025-06-22 16h54.43.745144 -0400
0,0,0,0,0,0,0,,,,,,,,,,,,,,,,,8.177037239,-0.175,-0.195,-4.17511903,-5.513427322,1,,782340,1,2025-06-22_16h54.39.070,ContPsyTracking,2024.2.4,104.7514196,2025-06-22 16h54.43.745144 -0400
0,0,0,0,0,0,0,,,,,,,,,,,,,,,,,8.186012268,-0.18,-0.193333333,-4.448491469,-5.972915131,1,,782340,1,2025-06-22_16h54.39.070,ContPsyTracking,2024.2.4,104.7514196,2025-06-22 16h54.43.745144 -0400
0,0,0,0,0,0,0,,,,,,,,,,,,,,,,,8.194973707,-0.19,-0.191666667,-4.298251476,-5.784140676,1,,782340,1,2025-06-22_16h54.39.070,ContPsyTracking,2024.2.4,104.7514196,2025-06-22 16h54.43.745144 -0400
0,0,0,0,0,0,0,,,,,,,,,,,,,,,,,8.206937551,-0.198333333,-0.191666667,-4.672577475,-5.993662201,1,,782340,1,2025-06-22_16h54.39.070,ContPsyTracking,2024.2.4,104.7514196,2025-06-22 16h54.43.745144 -0400
0,0,0,0,0,0,0,,,,,,,,,,,,,,,,,8.214905977,-0.206666667,-0.191666667,-4.713858565,-5.827335755,1,,782340,1,2025-06-22_16h54.39.070,ContPsyTracking,2024.2.4,104.7514196,2025-06-22 16h54.43.745144 -0400
0,0,0,0,0,0,0,,,,,,,,,,,,,,,,,8.224877596,-0.211666667,-0.193333333,-4.55525307,-5.552501839,1,,782340,1,2025-06-22_16h54.39.070,ContPsyTracking,2024.2.4,104.7514196,2025-06-22 16h54.43.745144 -0400
0,0,0,0,0,0,0,,,,,,,,,,,,,,,,,8.233844042,-0.216666667,-0.196666667,-4.458494249,-5.821717327,1,,782340,1,2025-06-22_16h54.39.070,ContPsyTracking,2024.2.4,104.7514196,2025-06-22 16h54.43.745144 -0400
0,0,0,0,0,0,0,,,,,,,,,,,,,,,,,8.242817402,-0.216666667,-0.196666667,-5.068362288,-5.86627265,1,,782340,1,2025-06-22_16h54.39.070,ContPsyTracking,2024.2.4,104.7514196,2025-06-22 16h54.43.745144 -0400
0,0,0,0,0,0,0,,,,,,,,,,,,,,,,,8.251783371,-0.22,-0.196666667,-5.338091483,-5.319075318,1,,782340,1,2025-06-22_16h54.39.070,ContPsyTracking,2024.2.4,104.7514196,2025-06-22 16h54.43.745144 -0400
0,0,0,0,0,0,0,,,,,,,,,,,,,,,,,8.262750864,-0.221666667,-0.198333333,-4.880566126,-5.001477161,1,,782340,1,2025-06-22_16h54.39.070,ContPsyTracking,2024.2.4,104.7514196,2025-06-22 16h54.43.745144 -0400
